participant,session,age,gender,handedness,phase,overall_trial_num,trial_in_block,mem_filename,mem_ground_truth,controlled,trial_level,item_type,mem_response,mem_rt,mem_trigger_onset,mem_trigger_resp
3,001,31,m,r,memory_test,241,1,tube_top_01b,unseen,,,,no,1.2654754999093711,52,61
3,001,31,m,r,memory_test,242,2,boxing_gloves_10s,unseen,,,,no,0.9823775999248028,52,61
3,001,31,m,r,memory_test,243,3,taco_05s,seen,yes,high,controlled,yes,2.028466100106016,51,61
3,001,31,m,r,memory_test,244,4,hot_tub_07s,seen,yes,low,controlled,no,1.2545435000211,51,62
3,001,31,m,r,memory_test,245,5,tomato_sauce_14s,unseen,,,,no,1.3667437999974936,52,61
3,001,31,m,r,memory_test,246,6,cookie_cutter_02s,seen,no,low,uncontrolled,no,0.8985836000647396,51,62
3,001,31,m,r,memory_test,247,7,frisbee_04s,seen,yes,high,controlled,no,0.8425307001452893,51,62
3,001,31,m,r,memory_test,248,8,sloth_03s,seen,yes,low,controlled,yes,0.819289900129661,51,61
3,001,31,m,r,memory_test,249,9,lion_15s,unseen,,,,yes,0.8273418999742717,52,62
3,001,31,m,r,memory_test,250,10,checkers_06s,unseen,,,,no,0.6642434000968933,52,61
3,001,31,m,r,memory_test,251,11,egg_roll_06s,unseen,,,,yes,0.9514125001151115,52,62
3,001,31,m,r,memory_test,252,12,polo_shirt_11s,unseen,,,,no,0.7985672999639064,52,61
3,001,31,m,r,memory_test,253,13,footprint_11s,seen,yes,high,controlled,no,0.7960472002159804,51,62
3,001,31,m,r,memory_test,254,14,nightshirt_01b,seen,no,low,uncontrolled,no,0.8297445999924093,51,62
3,001,31,m,r,memory_test,255,15,brush_04s,seen,no,high,uncontrolled,no,0.8334402998443693,51,62
3,001,31,m,r,memory_test,256,16,pet_food_04s,seen,yes,high,controlled,yes,0.8296457999385893,51,61
3,001,31,m,r,memory_test,257,17,rooster_07s,seen,no,high,uncontrolled,yes,1.0402536999899894,51,61
3,001,31,m,r,memory_test,258,18,test_tube_12s,seen,no,low,uncontrolled,yes,0.811186800012365,51,61
3,001,31,m,r,memory_test,259,19,fingerprint_02s,unseen,,,,no,1.4038004998583347,52,61
3,001,31,m,r,memory_test,260,20,crouton_07s,unseen,,,,yes,0.819364900002256,52,62
3,001,31,m,r,memory_test,261,21,snack_12s,seen,no,low,uncontrolled,yes,0.9026512000709772,51,61
3,001,31,m,r,memory_test,262,22,hot_chocolate_12s,unseen,,,,no,1.327648799866438,52,61
3,001,31,m,r,memory_test,263,23,limousine_10s,unseen,,,,no,0.8849655000958592,52,61
3,001,31,m,r,memory_test,264,24,worm_08n,unseen,,,,no,1.2657004001084715,52,61
3,001,31,m,r,memory_test,265,25,mouthpiece_01s,seen,yes,high,controlled,yes,0.7866754999849945,51,61
3,001,31,m,r,memory_test,266,26,dishrag_08s,unseen,,,,no,0.6584344999864697,52,61
3,001,31,m,r,memory_test,267,27,headband_10s,unseen,,,,no,0.8478262999560684,52,61
3,001,31,m,r,memory_test,268,28,sorbet_05s,seen,yes,low,controlled,no,0.692596800159663,51,62
3,001,31,m,r,memory_test,269,29,paint_10s,seen,no,low,uncontrolled,yes,0.7447762999217957,51,61
3,001,31,m,r,memory_test,270,30,undershirt_04s,unseen,,,,no,0.6915335999801755,52,61
3,001,31,m,r,memory_test,271,31,flipper_09s,unseen,,,,no,0.7764134998433292,52,61
3,001,31,m,r,memory_test,272,32,peanut_butter_07s,seen,yes,high,controlled,no,0.9360144000966102,51,62
3,001,31,m,r,memory_test,273,33,urinal_10s,seen,no,low,uncontrolled,no,0.6123007000423968,51,62
3,001,31,m,r,memory_test,274,34,garlic_05s,seen,no,low,uncontrolled,no,0.7443119001109153,51,62
3,001,31,m,r,memory_test,275,35,spider_web_14s,seen,yes,low,controlled,no,0.6688479001168162,51,62
3,001,31,m,r,memory_test,276,36,worm_06s,seen,no,high,uncontrolled,yes,0.555178300011903,51,61
3,001,31,m,r,memory_test,277,37,mulberry_02s,seen,yes,low,controlled,no,0.8365820001345128,51,62
3,001,31,m,r,memory_test,278,38,asparagus_04s,unseen,,,,yes,0.698472100077197,52,62
3,001,31,m,r,memory_test,279,39,corset_17s,unseen,,,,no,0.7861915999092162,52,61
3,001,31,m,r,memory_test,280,40,giraffe_07s,seen,yes,high,controlled,no,0.6093514000531286,51,62
3,001,31,m,r,memory_test,281,41,shears_04s,seen,no,high,uncontrolled,no,0.7453875998035073,51,62
3,001,31,m,r,memory_test,282,42,pantsuit_09s,unseen,,,,no,0.6073773000389338,52,61
3,001,31,m,r,memory_test,283,43,blower_08s,seen,no,high,uncontrolled,no,0.6823714999482036,51,62
3,001,31,m,r,memory_test,284,44,zebra_11s,seen,yes,high,controlled,yes,0.6756945999804884,51,61
3,001,31,m,r,memory_test,285,45,ready_meal_11s,seen,no,high,uncontrolled,yes,1.0823922001291066,51,61
3,001,31,m,r,memory_test,286,46,caviar_12s,unseen,,,,no,0.7388302001636475,52,61
3,001,31,m,r,memory_test,287,47,caviar_01b,seen,yes,high,controlled,no,0.4812110001221299,51,62
3,001,31,m,r,memory_test,288,48,light_switch_10s,unseen,,,,no,0.5326404999941587,52,61
3,001,31,m,r,memory_test,289,49,pallet_04s,unseen,,,,no,0.7030230001546443,52,61
3,001,31,m,r,memory_test,290,50,lollipop_06n,seen,no,high,uncontrolled,no,0.6214113999158144,51,62
3,001,31,m,r,memory_test,291,51,parfait_17s,unseen,,,,no,1.191205200040713,52,61
3,001,31,m,r,memory_test,292,52,spacesuit_04s,unseen,,,,no,0.703028199961409,52,61
3,001,31,m,r,memory_test,293,53,batter_04s,seen,no,low,uncontrolled,no,0.644806400174275,51,62
3,001,31,m,r,memory_test,294,54,creme_brulee_10s,seen,no,high,uncontrolled,yes,0.7924941999372095,51,61
3,001,31,m,r,memory_test,295,55,cauliflower_15s,unseen,,,,no,0.7908912000712007,52,61
3,001,31,m,r,memory_test,296,56,donut_02s,seen,no,low,uncontrolled,no,0.6706379000097513,51,62
3,001,31,m,r,memory_test,297,57,grater_03s,seen,no,low,uncontrolled,no,1.0254871998913586,51,62
3,001,31,m,r,memory_test,298,58,air_mattress_03s,seen,yes,high,controlled,no,0.9091041998472065,51,62
3,001,31,m,r,memory_test,299,59,chick_06s,seen,no,low,uncontrolled,no,0.5717680000234395,51,62
3,001,31,m,r,memory_test,300,60,snack_02s,unseen,,,,no,0.7631816999055445,52,61
3,001,31,m,r,memory_test,301,61,avocado_01b,unseen,,,,no,0.6573797999881208,52,61
3,001,31,m,r,memory_test,302,62,sponge_14s,seen,yes,high,controlled,no,0.665417600190267,51,62
3,001,31,m,r,memory_test,303,63,cookie_11s,seen,no,low,uncontrolled,no,0.6205276001710445,51,62
3,001,31,m,r,memory_test,304,64,peg_09s,seen,yes,high,controlled,no,0.5727885998785496,51,62
3,001,31,m,r,memory_test,305,65,waffle_iron_03s,unseen,,,,no,0.6885641999542713,52,61
3,001,31,m,r,memory_test,306,66,nightshirt_08s,unseen,,,,yes,1.4650409000460058,52,62
3,001,31,m,r,memory_test,307,67,bracelet1_05s,seen,no,high,uncontrolled,no,0.6839584999252111,51,62
3,001,31,m,r,memory_test,308,68,football_helmet_14s,unseen,,,,no,0.8567196999210864,52,61
3,001,31,m,r,memory_test,309,69,punching_bag_09s,unseen,,,,no,0.7078743998426944,52,61
3,001,31,m,r,memory_test,310,70,spaghetti_12s,unseen,,,,yes,0.851338799810037,52,62
3,001,31,m,r,memory_test,311,71,figurine_11s,seen,no,high,uncontrolled,no,0.6223513998556882,51,62
3,001,31,m,r,memory_test,312,72,cardinal_11s,unseen,,,,no,0.5968235000036657,52,61
3,001,31,m,r,memory_test,313,73,blindfold_16s,unseen,,,,no,0.6302026999182999,52,61
3,001,31,m,r,memory_test,314,74,bean_04s,seen,no,high,uncontrolled,no,0.6894255001097918,51,62
3,001,31,m,r,memory_test,315,75,peg_06s,unseen,,,,no,0.5316127999685705,52,61
3,001,31,m,r,memory_test,316,76,cheese_05n,seen,yes,high,controlled,no,0.9923811999615282,51,62
3,001,31,m,r,memory_test,317,77,float_07s,unseen,,,,no,0.7706089001148939,52,61
3,001,31,m,r,memory_test,318,78,wetsuit_03s,seen,yes,low,controlled,no,0.7536214001011103,51,62
3,001,31,m,r,memory_test,319,79,pants_05s,unseen,,,,no,0.6674204999580979,52,61
3,001,31,m,r,memory_test,320,80,goat_02n,seen,yes,low,controlled,no,0.6844237002078444,51,62
3,001,31,m,r,memory_test,321,81,pumpkin_19s,unseen,,,,no,0.8388832998462021,52,61
3,001,31,m,r,memory_test,322,82,costume_08s,unseen,,,,yes,1.0112443000543863,52,62
3,001,31,m,r,memory_test,323,83,lab_coat_01b,unseen,,,,no,0.502062999876216,52,61
3,001,31,m,r,memory_test,324,84,peppermint_10s,seen,yes,low,controlled,no,0.5619872000534087,51,62
3,001,31,m,r,memory_test,325,85,coaster_08s,unseen,,,,no,0.7513770000077784,52,61
3,001,31,m,r,memory_test,326,86,pajamas_09s,unseen,,,,no,0.8635340998880565,52,61
3,001,31,m,r,memory_test,327,87,elephant_07n,seen,no,low,uncontrolled,yes,0.9759181998670101,51,61
3,001,31,m,r,memory_test,328,88,pickle_13s,seen,no,low,uncontrolled,yes,0.7036304001230747,51,61
3,001,31,m,r,memory_test,329,89,sweeper_02s,seen,yes,high,controlled,no,1.054829000029713,51,62
3,001,31,m,r,memory_test,330,90,headband_09s,seen,yes,high,controlled,no,0.5990122999064624,51,62
3,001,31,m,r,memory_test,331,91,gyro_07s,seen,no,low,uncontrolled,yes,0.821639999980107,51,61
3,001,31,m,r,memory_test,332,92,bib_13n,seen,yes,low,controlled,no,0.4891009000129998,51,62
3,001,31,m,r,memory_test,333,93,dreidel_13s,unseen,,,,no,0.6572388000786304,52,61
3,001,31,m,r,memory_test,334,94,vacuum_09s,unseen,,,,no,0.771009000018239,52,61
3,001,31,m,r,memory_test,335,95,urinal_12s,unseen,,,,yes,0.8009451001416892,52,62
3,001,31,m,r,memory_test,336,96,gearshift_12n,unseen,,,,yes,1.0702003999613225,52,62
3,001,31,m,r,memory_test,337,97,hamster_07s,seen,yes,low,controlled,no,0.5928672000300139,51,62
3,001,31,m,r,memory_test,338,98,boxing_gloves_08s,seen,no,low,uncontrolled,yes,0.9200188000686467,51,61
3,001,31,m,r,memory_test,339,99,dragonfly_11n,unseen,,,,yes,0.8185206998605281,52,62
3,001,31,m,r,memory_test,340,100,jelly_bean_13n,seen,no,low,uncontrolled,no,0.5616319000255316,51,62
3,001,31,m,r,memory_test,341,101,diamond_14s,seen,no,high,uncontrolled,no,1.0778747000731528,51,62
3,001,31,m,r,memory_test,342,102,breadstick_02s,unseen,,,,yes,0.7364072999916971,52,62
3,001,31,m,r,memory_test,343,103,punching_bag_12s,seen,no,low,uncontrolled,no,0.7881086999550462,51,62
3,001,31,m,r,memory_test,344,104,pug_19s,seen,no,high,uncontrolled,yes,0.6544999999459833,51,61
3,001,31,m,r,memory_test,345,105,ice_cream_08s,seen,yes,low,controlled,no,1.0635983999818563,51,62
3,001,31,m,r,memory_test,346,106,canoe_06s,seen,no,high,uncontrolled,no,0.7190910000354052,51,62
3,001,31,m,r,memory_test,347,107,dragonfly_09s,seen,yes,high,controlled,yes,0.9827415999025106,51,61
3,001,31,m,r,memory_test,348,108,cigarette_09s,seen,yes,high,controlled,yes,0.7754817998502403,51,61
3,001,31,m,r,memory_test,349,109,pita_02s,seen,no,high,uncontrolled,yes,1.0420485001523048,51,61
3,001,31,m,r,memory_test,350,110,dough_19s,seen,no,high,uncontrolled,yes,0.8097788000013679,51,61
3,001,31,m,r,memory_test,351,111,dolphin_09n,seen,no,low,uncontrolled,yes,0.713004499906674,51,61
3,001,31,m,r,memory_test,352,112,duster_01s,unseen,,,,no,0.5051148000638932,52,61
3,001,31,m,r,memory_test,353,113,hydrant_12s,unseen,,,,no,0.7645232998766005,52,61
3,001,31,m,r,memory_test,354,114,swordfish_08s,seen,no,high,uncontrolled,no,0.9105048000346869,51,62
3,001,31,m,r,memory_test,355,115,squeegee_10s,seen,yes,high,controlled,no,0.654752500122413,51,62
3,001,31,m,r,memory_test,356,116,turf_04s,seen,yes,low,controlled,no,0.7154357000254095,51,62
3,001,31,m,r,memory_test,357,117,peanut_butter_02s,unseen,,,,no,0.7605824000202119,52,61
3,001,31,m,r,memory_test,358,118,vest_09s,seen,no,low,uncontrolled,no,0.7580518000759184,51,62
3,001,31,m,r,memory_test,359,119,trap_07s,unseen,,,,no,0.6192228000145406,52,61
3,001,31,m,r,memory_test,360,120,celery_04s,seen,no,high,uncontrolled,yes,0.6558472998440266,51,61
3,001,31,m,r,memory_test,361,121,leggings_04s,unseen,,,,yes,1.138350899796933,52,62
3,001,31,m,r,memory_test,362,122,jam_01b,unseen,,,,no,1.3894660999067128,52,61
3,001,31,m,r,memory_test,363,123,chopsticks_05s,unseen,,,,no,1.136188300093636,52,61
3,001,31,m,r,memory_test,364,124,rattle_12s,seen,yes,low,controlled,no,0.7286944000516087,51,62
3,001,31,m,r,memory_test,365,125,shaving_cream_07s,unseen,,,,yes,0.8300413999240845,52,62
3,001,31,m,r,memory_test,366,126,bedpan_08s,unseen,,,,no,0.6976405000314116,52,61
3,001,31,m,r,memory_test,367,127,keyboard_07s,seen,yes,high,controlled,no,0.9779129999224097,51,62
3,001,31,m,r,memory_test,368,128,spider_web_13s,unseen,,,,yes,1.1077423999086022,52,62
3,001,31,m,r,memory_test,369,129,tack_09s,unseen,,,,no,0.636410899925977,52,61
3,001,31,m,r,memory_test,370,130,barrette_09s,unseen,,,,no,0.6767392000183463,52,61
3,001,31,m,r,memory_test,371,131,yarn_10s,unseen,,,,no,0.7210297998972237,52,61
3,001,31,m,r,memory_test,372,132,flipper_12s,seen,yes,high,controlled,no,0.544365799985826,51,62
3,001,31,m,r,memory_test,373,133,dumpster_10s,unseen,,,,no,0.8024142000358552,52,61
3,001,31,m,r,memory_test,374,134,bean_09s,unseen,,,,no,0.8527475998271257,52,61
3,001,31,m,r,memory_test,375,135,koala_12s,unseen,,,,yes,0.7464957998599857,52,62
3,001,31,m,r,memory_test,376,136,coffee_bean_11s,unseen,,,,yes,0.8039128000382334,52,62
3,001,31,m,r,memory_test,377,137,bunkbed_06s,seen,no,high,uncontrolled,no,0.5983935999684036,51,62
3,001,31,m,r,memory_test,378,138,shears_03s,unseen,,,,yes,1.0034032000694424,52,62
3,001,31,m,r,memory_test,379,139,pepper2_01b,unseen,,,,no,0.6670915000140667,52,61
3,001,31,m,r,memory_test,380,140,cigarette_06s,unseen,,,,no,1.1063570999540389,52,61
3,001,31,m,r,memory_test,381,141,pencil_sharpener_10s,unseen,,,,no,0.7462728000245988,52,61
3,001,31,m,r,memory_test,382,142,sink_15n,unseen,,,,no,0.6470417000818998,52,61
3,001,31,m,r,memory_test,383,143,handbrake_07s,seen,yes,low,controlled,no,0.8623196000698954,51,62
3,001,31,m,r,memory_test,384,144,pita_08s,unseen,,,,no,0.9731827999930829,52,61
3,001,31,m,r,memory_test,385,145,hobbyhorse_04s,seen,yes,low,controlled,no,1.0914121000096202,51,62
3,001,31,m,r,memory_test,386,146,zebra_14s,unseen,,,,no,0.8201717000920326,52,61
3,001,31,m,r,memory_test,387,147,hairbrush_08s,unseen,,,,no,1.0072373999282718,52,61
3,001,31,m,r,memory_test,388,148,beanbag_16s,seen,no,low,uncontrolled,no,0.6188387998845428,51,62
3,001,31,m,r,memory_test,389,149,nutcracker_03s,seen,no,low,uncontrolled,no,0.684073599986732,51,62
3,001,31,m,r,memory_test,390,150,butter_14s,seen,no,high,uncontrolled,no,1.089024699991569,51,62
3,001,31,m,r,memory_test,391,151,swordfish_09s,unseen,,,,no,0.659332999959588,52,61
3,001,31,m,r,memory_test,392,152,football_helmet_05s,seen,no,low,uncontrolled,no,0.7304054000414908,51,62
3,001,31,m,r,memory_test,393,153,pet_food_10s,unseen,,,,no,0.6631054000463337,52,61
3,001,31,m,r,memory_test,394,154,lighter_08s,seen,no,high,uncontrolled,no,0.6337899002246559,51,62
3,001,31,m,r,memory_test,395,155,cornhusk_12s,seen,no,high,uncontrolled,no,0.6398595001082867,51,62
3,001,31,m,r,memory_test,396,156,sequin_06s,seen,yes,low,controlled,no,0.5911173999775201,51,62
3,001,31,m,r,memory_test,397,157,container_10s,unseen,,,,yes,0.908603599993512,52,62
3,001,31,m,r,memory_test,398,158,paintbrush_12s,seen,no,high,uncontrolled,no,0.8956120000220835,51,62
3,001,31,m,r,memory_test,399,159,saffron_02s,unseen,,,,no,0.607239400036633,52,61
3,001,31,m,r,memory_test,400,160,calf1_12s,seen,yes,high,controlled,no,0.6470319000072777,51,62
3,001,31,m,r,memory_test,401,161,domino_02s,seen,no,high,uncontrolled,no,0.6619941999670118,51,62
3,001,31,m,r,memory_test,402,162,kimono_06s,unseen,,,,yes,0.9978290998842567,52,62
3,001,31,m,r,memory_test,403,163,frisbee_11s,unseen,,,,no,0.6531867000740021,52,61
3,001,31,m,r,memory_test,404,164,ham_11s,unseen,,,,no,0.6855897998902947,52,61
3,001,31,m,r,memory_test,405,165,dolphin_02s,unseen,,,,no,0.635664900066331,52,61
3,001,31,m,r,memory_test,406,166,cream_cheese_12s,unseen,,,,no,0.6254676999524236,52,61
3,001,31,m,r,memory_test,407,167,tube_top_10s,seen,yes,low,controlled,yes,0.9156598001718521,51,61
3,001,31,m,r,memory_test,408,168,faucet_11s,unseen,,,,no,0.6776954000815749,52,61
3,001,31,m,r,memory_test,409,169,jam_13s,seen,yes,low,controlled,yes,0.8014797000214458,51,61
3,001,31,m,r,memory_test,410,170,tomato_sauce_07s,seen,yes,low,controlled,yes,1.0538795001339167,51,61
3,001,31,m,r,memory_test,411,171,garlic_03s,unseen,,,,yes,1.4105462001170963,52,62
3,001,31,m,r,memory_test,412,172,cat_01b,seen,yes,high,controlled,no,0.705698800040409,51,62
3,001,31,m,r,memory_test,413,173,duster_07s,seen,yes,low,controlled,no,0.6871295000892133,51,62
3,001,31,m,r,memory_test,414,174,squeegee_05s,unseen,,,,no,0.9508724000770599,52,61
3,001,31,m,r,memory_test,415,175,coffee_bean_12s,seen,yes,high,controlled,yes,0.8830974998418242,51,61
3,001,31,m,r,memory_test,416,176,eggshell_12s,seen,no,low,uncontrolled,no,0.7099425999913365,51,62
3,001,31,m,r,memory_test,417,177,memory_stick_05s,seen,no,high,uncontrolled,no,0.814492299919948,51,62
3,001,31,m,r,memory_test,418,178,sewage_09s,seen,yes,high,controlled,no,0.6174941998906434,51,62
3,001,31,m,r,memory_test,419,179,bikini_09s,seen,yes,high,controlled,yes,0.8547010999172926,51,61
3,001,31,m,r,memory_test,420,180,toad_16s,unseen,,,,no,0.5988902000244707,52,61
3,001,31,m,r,memory_test,421,181,chick_03s,unseen,,,,no,0.7743355000857264,52,61
3,001,31,m,r,memory_test,422,182,hydrant_01s,seen,yes,low,controlled,no,0.7213467000983655,51,62
3,001,31,m,r,memory_test,423,183,keyboard_04s,unseen,,,,no,1.3034296000842005,52,61
3,001,31,m,r,memory_test,424,184,football_05s,unseen,,,,no,0.5395430999342352,52,61
3,001,31,m,r,memory_test,425,185,blindfold_15s,seen,no,low,uncontrolled,no,0.738869900116697,51,62
3,001,31,m,r,memory_test,426,186,pickle_09s,unseen,,,,yes,0.701476400019601,52,62
3,001,31,m,r,memory_test,427,187,dough_04s,unseen,,,,yes,0.8736189000774175,52,62
3,001,31,m,r,memory_test,428,188,macaroni_13s,unseen,,,,no,0.5006607000250369,52,61
3,001,31,m,r,memory_test,429,189,figurine_08s,unseen,,,,no,0.5074677998200059,52,61
3,001,31,m,r,memory_test,430,190,saltshaker_08s,unseen,,,,no,0.5192238998133689,52,61
3,001,31,m,r,memory_test,431,191,snorkel_09s,seen,yes,low,controlled,no,0.5987923999782652,51,62
3,001,31,m,r,memory_test,432,192,bib_15n,unseen,,,,no,0.8917044999543577,52,61
3,001,31,m,r,memory_test,433,193,boa_02s,seen,yes,low,controlled,no,0.5464010001160204,51,62
3,001,31,m,r,memory_test,434,194,hamster_13s,unseen,,,,no,0.5517239000182599,52,61
3,001,31,m,r,memory_test,435,195,walrus_02n,seen,yes,high,controlled,no,0.5856500999070704,51,62
3,001,31,m,r,memory_test,436,196,ready_meal_07s,unseen,,,,no,1.0101302999537438,52,61
3,001,31,m,r,memory_test,437,197,banana_06s,seen,no,low,uncontrolled,no,0.5183844999410212,51,62
3,001,31,m,r,memory_test,438,198,pinball_09s,unseen,,,,no,0.5262989001348615,52,61
3,001,31,m,r,memory_test,439,199,wooden_leg_02s,seen,no,low,uncontrolled,no,0.6917940001003444,51,62
3,001,31,m,r,memory_test,440,200,step_stool_11s,seen,yes,high,controlled,no,0.5577757998835295,51,62
3,001,31,m,r,memory_test,441,201,juicer1_06s,seen,no,high,uncontrolled,yes,0.983039400074631,51,61
3,001,31,m,r,memory_test,442,202,spaghetti_07s,seen,yes,high,controlled,no,0.8315502998884767,51,62
3,001,31,m,r,memory_test,443,203,undershirt_12s,seen,yes,high,controlled,no,0.5883176999632269,51,62
3,001,31,m,r,memory_test,444,204,clipper2_06s,unseen,,,,no,0.6922063999809325,52,61
3,001,31,m,r,memory_test,445,205,electric_chair_09s,seen,no,high,uncontrolled,no,0.8695155000314116,51,62
3,001,31,m,r,memory_test,446,206,toothbrush_01s,seen,yes,high,controlled,no,0.6521405000239611,51,62
3,001,31,m,r,memory_test,447,207,sloth_02s,unseen,,,,no,0.6401023999787867,52,61
3,001,31,m,r,memory_test,448,208,cross_11s,unseen,,,,no,0.5394512999337167,52,61
3,001,31,m,r,memory_test,449,209,saltshaker_07s,seen,yes,high,controlled,no,1.0031441000755876,51,62
3,001,31,m,r,memory_test,450,210,toad_06s,seen,no,low,uncontrolled,no,0.7165898999664932,51,62
3,001,31,m,r,memory_test,451,211,ginger_10s,unseen,,,,no,0.5981083000078797,52,61
3,001,31,m,r,memory_test,452,212,cross_14s,seen,no,high,uncontrolled,no,0.5425909999758005,51,62
3,001,31,m,r,memory_test,453,213,cream_cheese_07s,seen,yes,high,controlled,yes,0.9261839999817312,51,61
3,001,31,m,r,memory_test,454,214,waffle_06s,seen,no,high,uncontrolled,no,0.6033703999128193,51,62
3,001,31,m,r,memory_test,455,215,crouton_12s,seen,yes,high,controlled,yes,0.6412854001391679,51,61
3,001,31,m,r,memory_test,456,216,vest_05s,unseen,,,,no,0.6880781999789178,52,61
3,001,31,m,r,memory_test,457,217,drumstick_04s,unseen,,,,yes,1.0395064000040293,52,62
3,001,31,m,r,memory_test,458,218,grater_12s,unseen,,,,no,0.5924998000264168,52,61
3,001,31,m,r,memory_test,459,219,butter_13s,unseen,,,,no,0.6938286998774856,52,61
3,001,31,m,r,memory_test,460,220,football_01b,seen,no,low,uncontrolled,no,0.5908590001054108,51,62
3,001,31,m,r,memory_test,461,221,robot_07s,unseen,,,,no,0.4692174999509007,52,61
3,001,31,m,r,memory_test,462,222,iceskate_07s,unseen,,,,no,0.5121352998539805,52,61
3,001,31,m,r,memory_test,463,223,lollipop_08s,unseen,,,,no,0.5792956999503076,52,61
3,001,31,m,r,memory_test,464,224,chinchilla_08s,unseen,,,,no,0.5870864000171423,52,61
3,001,31,m,r,memory_test,465,225,sandbox_06s,unseen,,,,yes,1.0004658999387175,52,62
3,001,31,m,r,memory_test,466,226,raccoon_01b,unseen,,,,no,0.6776433000341058,52,61
3,001,31,m,r,memory_test,467,227,cauliflower_02s,seen,no,low,uncontrolled,yes,1.2839583000168204,51,61
3,001,31,m,r,memory_test,468,228,skewer_09s,unseen,,,,no,0.5617452999576926,52,61
3,001,31,m,r,memory_test,469,229,fingerprint_12s,seen,no,low,uncontrolled,yes,0.770727900089696,51,61
3,001,31,m,r,memory_test,470,230,wrench_03s,seen,yes,low,controlled,no,0.6912467000074685,51,62
3,001,31,m,r,memory_test,471,231,cornhusk_03s,unseen,,,,yes,1.243036099942401,52,62
3,001,31,m,r,memory_test,472,232,mushroom_08n,seen,no,high,uncontrolled,yes,0.8323261998593807,51,61
3,001,31,m,r,memory_test,473,233,cheese_07s,unseen,,,,no,1.6101736999116838,52,61
3,001,31,m,r,memory_test,474,234,clasp_09s,seen,no,high,uncontrolled,no,0.5738678998313844,51,62
3,001,31,m,r,memory_test,475,235,ham_10s,seen,no,high,uncontrolled,yes,1.0668023000471294,51,61
3,001,31,m,r,memory_test,476,236,sushi_09s,unseen,,,,no,0.8873845001216978,52,61
3,001,31,m,r,memory_test,477,237,tack_01b,seen,yes,low,controlled,yes,0.5570383998565376,51,61
3,001,31,m,r,memory_test,478,238,shark_06s,unseen,,,,no,0.7459005999844521,52,61
3,001,31,m,r,memory_test,479,239,praying_mantis_20s,seen,no,low,uncontrolled,no,0.7109719999134541,51,62
3,001,31,m,r,memory_test,480,240,mashed_potato_05s,seen,yes,high,controlled,no,0.8573490001726896,51,62
3,001,31,m,r,memory_test,481,241,headset_09s,unseen,,,,no,0.7509379000402987,52,61
3,001,31,m,r,memory_test,482,242,badge_07s,seen,no,low,uncontrolled,no,1.268622700124979,51,62
3,001,31,m,r,memory_test,483,243,paintbrush_06s,unseen,,,,no,0.8799906000494957,52,61
3,001,31,m,r,memory_test,484,244,checkers_07s,seen,no,high,uncontrolled,no,0.643623000010848,51,62
3,001,31,m,r,memory_test,485,245,glove_13s,seen,no,high,uncontrolled,no,2.108031499898061,51,62
3,001,31,m,r,memory_test,486,246,apron_13s,seen,yes,low,controlled,no,1.2225848000962287,51,62
3,001,31,m,r,memory_test,487,247,cashew_07s,unseen,,,,yes,0.7832679999992251,52,62
3,001,31,m,r,memory_test,488,248,domino_09s,unseen,,,,no,0.8823716000188142,52,61
3,001,31,m,r,memory_test,489,249,canoe_09s,unseen,,,,yes,1.8693202999420464,52,62
3,001,31,m,r,memory_test,490,250,sequin_12s,unseen,,,,no,0.5903249999973923,52,61
3,001,31,m,r,memory_test,491,251,raccoon_06n,seen,no,high,uncontrolled,yes,0.753923799842596,51,61
3,001,31,m,r,memory_test,492,252,kazoo_07s,unseen,,,,no,0.44252289994619787,52,61
3,001,31,m,r,memory_test,493,253,goat_08s,unseen,,,,no,0.652581200003624,52,61
3,001,31,m,r,memory_test,494,254,jelly_bean_10s,unseen,,,,no,0.7084810000378639,52,61
3,001,31,m,r,memory_test,495,255,bowling_ball_17s,unseen,,,,no,0.5066145998425782,52,61
3,001,31,m,r,memory_test,496,256,dumpster_02s,seen,yes,low,controlled,no,0.4199731000699103,51,62
3,001,31,m,r,memory_test,497,257,barrette_01b,seen,no,low,uncontrolled,no,0.6102030000183731,51,62
3,001,31,m,r,memory_test,498,258,step_stool_06s,unseen,,,,no,0.4120587999932468,52,61
3,001,31,m,r,memory_test,499,259,quiche_14s,unseen,,,,no,0.6629544000606984,52,61
3,001,31,m,r,memory_test,500,260,washing_machine_05s,seen,no,low,uncontrolled,yes,1.1054267999716103,51,61
3,001,31,m,r,memory_test,501,261,hot_tub_06s,unseen,,,,no,0.5984187999274582,52,61
3,001,31,m,r,memory_test,502,262,leggings_12s,seen,yes,high,controlled,yes,0.8350549000315368,51,61
3,001,31,m,r,memory_test,503,263,dalmatian_10s,seen,yes,high,controlled,no,0.40425399993546307,51,62
3,001,31,m,r,memory_test,504,264,pocket_08s,unseen,,,,no,0.5671783001162112,52,61
3,001,31,m,r,memory_test,505,265,toothbrush_05s,unseen,,,,no,0.6687608000356704,52,61
3,001,31,m,r,memory_test,506,266,jumpsuit_07s,seen,yes,low,controlled,no,0.5975623999256641,51,62
3,001,31,m,r,memory_test,507,267,cardinal_05s,seen,yes,low,controlled,no,0.43103370000608265,51,62
3,001,31,m,r,memory_test,508,268,pencil_sharpener_11s,seen,yes,high,controlled,no,0.5528250997886062,51,62
3,001,31,m,r,memory_test,509,269,banana_03s,unseen,,,,no,0.6695040999911726,52,61
3,001,31,m,r,memory_test,510,270,macaroni_11s,seen,no,low,uncontrolled,no,0.7439379000570625,51,62
3,001,31,m,r,memory_test,511,271,cheesecake_11s,seen,yes,high,controlled,no,0.5634973999112844,51,62
3,001,31,m,r,memory_test,512,272,wallet_05s,seen,yes,low,controlled,no,0.6644266999792308,51,62
3,001,31,m,r,memory_test,513,273,skewer_01b,seen,no,low,uncontrolled,no,0.7947438999544829,51,62
3,001,31,m,r,memory_test,514,274,suit_06s,seen,no,high,uncontrolled,no,1.169018399901688,51,62
3,001,31,m,r,memory_test,515,275,sewage_05s,unseen,,,,no,0.8171237998176366,52,61
3,001,31,m,r,memory_test,516,276,egg_roll_07n,seen,yes,high,controlled,no,1.1405746000818908,51,62
3,001,31,m,r,memory_test,517,277,creme_brulee_07s,unseen,,,,yes,1.3029537999536842,52,62
3,001,31,m,r,memory_test,518,278,asparagus_07s,seen,yes,high,controlled,no,1.2010458998847753,51,62
3,001,31,m,r,memory_test,519,279,washing_machine_08s,unseen,,,,no,0.9111550999805331,52,61
3,001,31,m,r,memory_test,520,280,locker_12s,unseen,,,,no,0.6748455001506954,52,61
3,001,31,m,r,memory_test,521,281,jumpsuit_13s,unseen,,,,no,0.9003421999514103,52,61
3,001,31,m,r,memory_test,522,282,ketchup_15s,seen,yes,high,controlled,no,0.628919499926269,51,62
3,001,31,m,r,memory_test,523,283,meatball_16s,seen,no,high,uncontrolled,no,0.6288395000156015,51,62
3,001,31,m,r,memory_test,524,284,pretzel_07s,seen,no,low,uncontrolled,no,1.0072818000335246,51,62
3,001,31,m,r,memory_test,525,285,pug_21s,unseen,,,,no,0.9211951000615954,52,61
3,001,31,m,r,memory_test,526,286,badge_02s,unseen,,,,no,0.6658548999112099,52,61
3,001,31,m,r,memory_test,527,287,bubble_wrap_11s,seen,no,high,uncontrolled,no,0.6115518000442535,51,62
3,001,31,m,r,memory_test,528,288,sweeper_07s,unseen,,,,no,0.5811268999241292,52,61
3,001,31,m,r,memory_test,529,289,staple_01b,seen,yes,high,controlled,no,0.5615648000966758,51,62
3,001,31,m,r,memory_test,530,290,rooster_09s,unseen,,,,no,0.7355665999930352,52,61
3,001,31,m,r,memory_test,531,291,pretzel_02s,unseen,,,,no,0.8497117001097649,52,61
3,001,31,m,r,memory_test,532,292,boot_08s,seen,no,low,uncontrolled,no,0.5304866000078619,51,62
3,001,31,m,r,memory_test,533,293,locker_08s,seen,yes,high,controlled,no,0.5658028000034392,51,62
3,001,31,m,r,memory_test,534,294,quiche_07s,seen,yes,low,controlled,no,0.6266378997825086,51,62
3,001,31,m,r,memory_test,535,295,yarn_14s,seen,no,high,uncontrolled,no,0.5997428998816758,51,62
3,001,31,m,r,memory_test,536,296,sleeping_bag_02s,unseen,,,,no,0.5351024998817593,52,61
3,001,31,m,r,memory_test,537,297,rattle_04s,unseen,,,,no,1.548874800093472,52,61
3,001,31,m,r,memory_test,538,298,filing_cabinet_07s,seen,yes,low,controlled,no,0.7278084000572562,51,62
3,001,31,m,r,memory_test,539,299,hairdryer_07s,unseen,,,,no,0.6991680001374334,52,61
3,001,31,m,r,memory_test,540,300,chinchilla_13n,seen,no,high,uncontrolled,no,0.8039500000886619,51,62
3,001,31,m,r,memory_test,541,301,ketchup_14s,unseen,,,,no,0.8546690999064595,52,61
3,001,31,m,r,memory_test,542,302,memory_stick_12s,unseen,,,,no,0.9435238000005484,52,61
3,001,31,m,r,memory_test,543,303,soap_09s,unseen,,,,no,0.6237410998437554,52,61
3,001,31,m,r,memory_test,544,304,dip_11s,unseen,,,,no,0.7503725001588464,52,61
3,001,31,m,r,memory_test,545,305,kangaroo_12s,unseen,,,,no,0.685237699886784,52,61
3,001,31,m,r,memory_test,546,306,tattoo_12s,seen,no,high,uncontrolled,no,0.502844899892807,51,62
3,001,31,m,r,memory_test,547,307,soap_06s,seen,yes,low,controlled,no,0.7056354999076575,51,62
3,001,31,m,r,memory_test,548,308,air_mattress_13s,unseen,,,,no,1.013671200023964,52,61
3,001,31,m,r,memory_test,549,309,green_beans_03s,unseen,,,,no,1.0633368999697268,52,61
3,001,31,m,r,memory_test,550,310,bubble_wrap_05s,unseen,,,,no,0.7323820001911372,52,61
3,001,31,m,r,memory_test,551,311,mulberry_14s,unseen,,,,no,0.7471207999624312,52,61
3,001,31,m,r,memory_test,552,312,toilet_14n,seen,yes,low,controlled,no,0.6562437999527901,51,62
3,001,31,m,r,memory_test,553,313,pea_02s,unseen,,,,no,0.6558848000131547,52,61
3,001,31,m,r,memory_test,554,314,peppermint_02s,unseen,,,,no,0.39426580001600087,52,61
3,001,31,m,r,memory_test,555,315,pacifier_04s,unseen,,,,no,0.7585397998336703,52,61
3,001,31,m,r,memory_test,556,316,chopsticks_04s,seen,yes,low,controlled,yes,0.9529258999973536,51,61
3,001,31,m,r,memory_test,557,317,sushi_08s,seen,yes,low,controlled,yes,0.66653549997136,51,61
3,001,31,m,r,memory_test,558,318,pajamas_13s,seen,yes,high,controlled,no,0.5651543999556452,51,62
3,001,31,m,r,memory_test,559,319,otter_12s,seen,yes,low,controlled,no,0.713632500031963,51,62
3,001,31,m,r,memory_test,560,320,pizza_08s,unseen,,,,no,0.8264886999968439,52,61
3,001,31,m,r,memory_test,561,321,pacifier_07s,seen,no,low,uncontrolled,no,0.8900713000912219,51,62
3,001,31,m,r,memory_test,562,322,puppy_07s,unseen,,,,no,0.7846564000938088,52,61
3,001,31,m,r,memory_test,563,323,snorkel_05s,unseen,,,,no,0.6860650000162423,52,61
3,001,31,m,r,memory_test,564,324,hairdryer_06s,seen,no,low,uncontrolled,no,0.9415168000850827,51,62
3,001,31,m,r,memory_test,565,325,waffle_08s,unseen,,,,yes,1.1194492001086473,52,62
3,001,31,m,r,memory_test,566,326,mashed_potato_09s,unseen,,,,no,0.8816881000529975,52,61
3,001,31,m,r,memory_test,567,327,calf1_01b,unseen,,,,no,0.6249365999829024,52,61
3,001,31,m,r,memory_test,568,328,grapefruit_04s,unseen,,,,no,0.6983647998422384,52,61
3,001,31,m,r,memory_test,569,329,eggplant_05n,seen,no,low,uncontrolled,no,0.5369249999057502,51,62
3,001,31,m,r,memory_test,570,330,brush_10s,unseen,,,,no,0.5296137998811901,52,61
3,001,31,m,r,memory_test,571,331,candy_cane_07s,unseen,,,,no,0.5080464000348002,52,61
3,001,31,m,r,memory_test,572,332,waffle_iron_14s,seen,no,low,uncontrolled,no,1.3071759000886232,51,62
3,001,31,m,r,memory_test,573,333,clasp_03s,unseen,,,,no,0.48254320002160966,52,61
3,001,31,m,r,memory_test,574,334,boxer_shorts_09s,unseen,,,,no,0.5795599000994116,52,61
3,001,31,m,r,memory_test,575,335,otter_02s,unseen,,,,no,0.5765482999850065,52,61
3,001,31,m,r,memory_test,576,336,bikini_03s,unseen,,,,no,0.7990773001220077,52,61
3,001,31,m,r,memory_test,577,337,doorknocker_04s,unseen,,,,no,0.6019078998360783,52,61
3,001,31,m,r,memory_test,578,338,iceskate_14s,seen,yes,low,controlled,yes,0.8930476999375969,51,61
3,001,31,m,r,memory_test,579,339,pants_03s,seen,yes,low,controlled,no,0.7749701000284404,51,62
3,001,31,m,r,memory_test,580,340,filing_cabinet_09s,unseen,,,,no,0.963107299990952,52,61
3,001,31,m,r,memory_test,581,341,cookie_cutter_10s,unseen,,,,no,0.8184768999926746,52,61
3,001,31,m,r,memory_test,582,342,shower_cap_07s,unseen,,,,no,0.6871692000422627,52,61
3,001,31,m,r,memory_test,583,343,green_beans_12s,seen,no,low,uncontrolled,no,1.2160475999116898,51,62
3,001,31,m,r,memory_test,584,344,candy_cane_05s,seen,no,low,uncontrolled,yes,0.9483686999883503,51,61
3,001,31,m,r,memory_test,585,345,paint_01b,unseen,,,,no,1.1016704000066966,52,61
3,001,31,m,r,memory_test,586,346,kimono_02s,seen,yes,low,controlled,no,0.7671115999110043,51,62
3,001,31,m,r,memory_test,587,347,wooden_leg_08s,unseen,,,,no,0.8945035000797361,52,61
3,001,31,m,r,memory_test,588,348,pill_03s,unseen,,,,no,0.7974811000749469,52,61
3,001,31,m,r,memory_test,589,349,toilet_02s,unseen,,,,no,0.8841442000120878,52,61
3,001,31,m,r,memory_test,590,350,sandbox_10s,seen,yes,high,controlled,yes,1.7386271001305431,51,61
3,001,31,m,r,memory_test,591,351,glove_15s,unseen,,,,no,0.5890460000373423,52,61
3,001,31,m,r,memory_test,592,352,pocket_01b,seen,yes,high,controlled,no,0.4326957000885159,51,62
3,001,31,m,r,memory_test,593,353,pepper2_07s,seen,no,high,uncontrolled,yes,0.9574511998798698,51,61
3,001,31,m,r,memory_test,594,354,shower_cap_12s,seen,no,low,uncontrolled,no,0.7840426999609917,51,62
3,001,31,m,r,memory_test,595,355,pea_14s,seen,no,low,uncontrolled,no,0.7644897000864148,51,62
3,001,31,m,r,memory_test,596,356,pinball_02s,seen,no,low,uncontrolled,yes,1.0166738000698388,51,61
3,001,31,m,r,memory_test,597,357,lanyard_03s,unseen,,,,no,0.6831086999736726,52,61
3,001,31,m,r,memory_test,598,358,praying_mantis_04s,unseen,,,,no,1.1229002000764012,52,61
3,001,31,m,r,memory_test,599,359,elephant_05n,unseen,,,,no,0.9104708000086248,52,61
3,001,31,m,r,memory_test,600,360,limousine_01s,seen,no,low,uncontrolled,no,0.6770977999549359,51,62
3,001,31,m,r,memory_test,601,361,sponge_06s,unseen,,,,no,0.6555517001543194,52,61
3,001,31,m,r,memory_test,602,362,light_switch_17s,seen,no,low,uncontrolled,no,0.7451011999510229,51,62
3,001,31,m,r,memory_test,603,363,salami_08s,seen,yes,low,controlled,yes,0.9035255999770015,51,61
3,001,31,m,r,memory_test,604,364,lab_coat_04s,seen,no,high,uncontrolled,no,0.9615538001526147,51,62
3,001,31,m,r,memory_test,605,365,pallet_10s,seen,yes,high,controlled,no,1.259184299968183,51,62
3,001,31,m,r,memory_test,606,366,headset_03s,seen,no,high,uncontrolled,no,1.0531307999044657,51,62
3,001,31,m,r,memory_test,607,367,olive_04s,seen,no,high,uncontrolled,no,1.055024900007993,51,62
3,001,31,m,r,memory_test,608,368,crutch_04s,unseen,,,,no,1.2118961999658495,52,61
3,001,31,m,r,memory_test,609,369,polo_shirt_04s,seen,yes,low,controlled,no,1.0213023000396788,51,62
3,001,31,m,r,memory_test,610,370,shaving_cream_05s,seen,yes,low,controlled,no,1.1707937000319362,51,62
3,001,31,m,r,memory_test,611,371,swab_02s,unseen,,,,no,0.5703278000000864,52,61
3,001,31,m,r,memory_test,612,372,coin_15s,unseen,,,,no,0.5898271000478417,52,61
3,001,31,m,r,memory_test,613,373,electric_chair_11s,unseen,,,,yes,0.9958310001529753,52,62
3,001,31,m,r,memory_test,614,374,handbrake_03s,unseen,,,,no,1.071614399785176,52,61
3,001,31,m,r,memory_test,615,375,cloak_12s,seen,no,high,uncontrolled,no,1.0130028000567108,51,62
3,001,31,m,r,memory_test,616,376,taco_01b,unseen,,,,no,1.3568188999779522,52,61
3,001,31,m,r,memory_test,617,377,taffy_02s,seen,yes,high,controlled,no,0.9139595001470298,51,62
3,001,31,m,r,memory_test,618,378,boxer_shorts_03s,seen,no,low,uncontrolled,no,0.6510214000009,51,62
3,001,31,m,r,memory_test,619,379,drumstick_12s,seen,no,high,uncontrolled,no,0.7392372000031173,51,62
3,001,31,m,r,memory_test,620,380,sleeping_bag_12s,seen,yes,low,controlled,yes,1.1134790999349207,51,61
3,001,31,m,r,memory_test,621,381,coaster_05s,seen,yes,low,controlled,no,0.6048741999547929,51,62
3,001,31,m,r,memory_test,622,382,gearshift_03n,seen,yes,low,controlled,yes,0.9193514999933541,51,61
3,001,31,m,r,memory_test,623,383,target_12s,unseen,,,,no,0.5987426999490708,52,61
3,001,31,m,r,memory_test,624,384,doorknocker_26s,seen,yes,low,controlled,no,0.5610801998991519,51,62
3,001,31,m,r,memory_test,625,385,parfait_20s,seen,no,low,uncontrolled,no,0.9546703998930752,51,62
3,001,31,m,r,memory_test,626,386,bowtie_14s,seen,no,high,uncontrolled,no,0.9476991998963058,51,62
3,001,31,m,r,memory_test,627,387,juicer1_09s,unseen,,,,no,0.73519969987683,52,61
3,001,31,m,r,memory_test,628,388,mitten_08s,unseen,,,,no,0.6364643999841064,52,61
3,001,31,m,r,memory_test,629,389,curling_iron_05s,seen,no,low,uncontrolled,yes,0.8006533000152558,51,61
3,001,31,m,r,memory_test,630,390,mushroom_07n,unseen,,,,no,0.6277809999883175,52,61
3,001,31,m,r,memory_test,631,391,turf_07s,unseen,,,,no,0.6953222998417914,52,61
3,001,31,m,r,memory_test,632,392,mitten_04s,seen,yes,low,controlled,no,2.373876699944958,51,62
3,001,31,m,r,memory_test,633,393,hairbrush_12s,seen,no,high,uncontrolled,yes,0.7043902999721467,51,61
3,001,31,m,r,memory_test,634,394,blower_12s,unseen,,,,no,0.8433187000919133,52,61
3,001,31,m,r,memory_test,635,395,shark_07s,seen,yes,low,controlled,yes,0.8213849999010563,51,61
3,001,31,m,r,memory_test,636,396,faucet_09s,seen,no,low,uncontrolled,no,0.814499800093472,51,62
3,001,31,m,r,memory_test,637,397,olive_08s,unseen,,,,no,0.6883632999379188,52,61
3,001,31,m,r,memory_test,638,398,sauerkraut_03s,seen,yes,high,controlled,no,0.684255100088194,51,62
3,001,31,m,r,memory_test,639,399,cookie_14s,unseen,,,,no,0.7065455999691039,52,61
3,001,31,m,r,memory_test,640,400,giraffe_17s,unseen,,,,yes,0.8711395999416709,52,62
3,001,31,m,r,memory_test,641,401,wrench_04s,unseen,,,,yes,0.8044876998756081,52,62
3,001,31,m,r,memory_test,642,402,quesadilla_06s,unseen,,,,no,0.8040565000846982,52,61
3,001,31,m,r,memory_test,643,403,bracelet1_12s,unseen,,,,no,0.6005092998966575,52,61
3,001,31,m,r,memory_test,644,404,tattoo_04s,unseen,,,,no,0.652041400084272,52,61
3,001,31,m,r,memory_test,645,405,wetsuit_01b,unseen,,,,no,0.8809132999740541,52,61
3,001,31,m,r,memory_test,646,406,hobbyhorse_01b,unseen,,,,no,0.9250795000698417,52,61
3,001,31,m,r,memory_test,647,407,target_14s,seen,yes,low,controlled,no,0.7206278999801725,51,62
3,001,31,m,r,memory_test,648,408,footprint_10s,unseen,,,,no,0.7815845999866724,52,61
3,001,31,m,r,memory_test,649,409,toast_13s,seen,no,high,uncontrolled,no,0.742569699883461,51,62
3,001,31,m,r,memory_test,650,410,quesadilla_23s,seen,no,low,uncontrolled,yes,1.0663958999793977,51,61
3,001,31,m,r,memory_test,651,411,toast_07s,unseen,,,,yes,2.226164400111884,52,62
3,001,31,m,r,memory_test,652,412,crutch_01b,seen,no,high,uncontrolled,no,0.6764358000364155,51,62
3,001,31,m,r,memory_test,653,413,costume_04s,seen,yes,low,controlled,no,0.8291577000636607,51,62
3,001,31,m,r,memory_test,654,414,meatball_08s,unseen,,,,yes,0.6971929999999702,52,62
3,001,31,m,r,memory_test,655,415,breadstick_14s,seen,yes,high,controlled,no,0.7829785998910666,51,62
3,001,31,m,r,memory_test,656,416,sauerkraut_07s,unseen,,,,no,0.5922878000419587,52,61
3,001,31,m,r,memory_test,657,417,hamburger_10s,unseen,,,,no,0.6760191998910159,52,61
3,001,31,m,r,memory_test,658,418,pumpkin_16s,seen,no,low,uncontrolled,no,0.5204043001867831,51,62
3,001,31,m,r,memory_test,659,419,container_04s,seen,yes,high,controlled,no,0.48298679990693927,51,62
3,001,31,m,r,memory_test,660,420,batter_08s,unseen,,,,no,0.668468700023368,52,61
3,001,31,m,r,memory_test,661,421,boa_11s,unseen,,,,no,0.6572870998643339,52,61
3,001,31,m,r,memory_test,662,422,hamburger_02s,seen,yes,high,controlled,yes,0.7454682998359203,51,61
3,001,31,m,r,memory_test,663,423,lion_22s,seen,yes,low,controlled,yes,0.9818593999370933,51,61
3,001,31,m,r,memory_test,664,424,sink_01b,seen,no,high,uncontrolled,no,0.6257303999736905,51,62
3,001,31,m,r,memory_test,665,425,dreidel_10s,seen,yes,high,controlled,no,0.634565900079906,51,62
3,001,31,m,r,memory_test,666,426,dip_05s,seen,yes,low,controlled,no,0.7675232999026775,51,62
3,001,31,m,r,memory_test,667,427,boot_02s,unseen,,,,no,1.0017432000022382,52,61
3,001,31,m,r,memory_test,668,428,bowtie_05s,unseen,,,,no,0.5214936998672783,52,61
3,001,31,m,r,memory_test,669,429,lanyard_13s,seen,no,high,uncontrolled,no,0.703270300058648,51,62
3,001,31,m,r,memory_test,670,430,trap_03s,seen,yes,high,controlled,yes,1.7095979999285191,51,61
3,001,31,m,r,memory_test,671,431,bunkbed_13s,unseen,,,,no,0.7592154999729246,52,61
3,001,31,m,r,memory_test,672,432,sorbet_04s,unseen,,,,no,0.5458961999975145,52,61
3,001,31,m,r,memory_test,673,433,swab_14s,seen,yes,low,controlled,no,0.765432600164786,51,62
3,001,31,m,r,memory_test,674,434,walrus_01b,unseen,,,,no,0.5839617000892758,52,61
3,001,31,m,r,memory_test,675,435,pill_06s,seen,yes,high,controlled,yes,1.2036478999070823,51,61
3,001,31,m,r,memory_test,676,436,coin_03s,seen,yes,low,controlled,no,0.6249247998930514,51,62
3,001,31,m,r,memory_test,677,437,kazoo_08s,seen,yes,low,controlled,no,0.5855204998515546,51,62
3,001,31,m,r,memory_test,678,438,kangaroo_11s,seen,yes,high,controlled,no,0.7087751000653952,51,62
3,001,31,m,r,memory_test,679,439,curling_iron_04s,unseen,,,,no,2.218266600044444,52,61
3,001,31,m,r,memory_test,680,440,puppy_06s,seen,no,low,uncontrolled,no,0.986346899997443,51,62
3,001,31,m,r,memory_test,681,441,cashew_02s,seen,no,high,uncontrolled,yes,1.2446443000808358,51,61
3,001,31,m,r,memory_test,682,442,mouthpiece_03s,unseen,,,,no,0.7905922001227736,52,61
3,001,31,m,r,memory_test,683,443,diamond_16s,unseen,,,,no,0.6568310000002384,52,61
3,001,31,m,r,memory_test,684,444,cheesecake_13s,unseen,,,,yes,1.0425366000272334,52,62
3,001,31,m,r,memory_test,685,445,pizza_03s,seen,yes,low,controlled,yes,0.7216982000973076,51,61
3,001,31,m,r,memory_test,686,446,taffy_07s,unseen,,,,no,0.6813211000990123,52,61
3,001,31,m,r,memory_test,687,447,grapefruit_09s,seen,no,high,uncontrolled,no,0.7080500000156462,51,62
3,001,31,m,r,memory_test,688,448,lighter_03s,unseen,,,,no,2.487783200107515,52,61
3,001,31,m,r,memory_test,689,449,clipper2_05s,seen,no,high,uncontrolled,no,0.7607821999117732,51,62
3,001,31,m,r,memory_test,690,450,beanbag_13s,unseen,,,,no,1.1679599001072347,52,61
3,001,31,m,r,memory_test,691,451,nutcracker_11s,unseen,,,,no,0.4983238000422716,52,61
3,001,31,m,r,memory_test,692,452,avocado_13s,seen,no,low,uncontrolled,no,1.074502500006929,51,62
3,001,31,m,r,memory_test,693,453,suit_14s,unseen,,,,yes,1.0013494999147952,52,62
3,001,31,m,r,memory_test,694,454,gyro_01b,unseen,,,,no,0.9501165000256151,52,61
3,001,31,m,r,memory_test,695,455,robot_01b,seen,no,high,uncontrolled,no,0.7895120000466704,51,62
3,001,31,m,r,memory_test,696,456,donut_15s,unseen,,,,no,0.9080110001377761,52,61
3,001,31,m,r,memory_test,697,457,hot_chocolate_07s,seen,yes,high,controlled,no,0.6274391000624746,51,62
3,001,31,m,r,memory_test,698,458,celery_08n,unseen,,,,no,0.6259135000873357,52,61
3,001,31,m,r,memory_test,699,459,cat_08s,unseen,,,,no,0.6001488000620157,52,61
3,001,31,m,r,memory_test,700,460,corset_08s,seen,no,high,uncontrolled,no,0.7182740001007915,51,62
3,001,31,m,r,memory_test,701,461,dalmatian_01b,unseen,,,,no,0.8118020999245346,52,61
3,001,31,m,r,memory_test,702,462,salami_13s,unseen,,,,no,0.6929254999849945,52,61
3,001,31,m,r,memory_test,703,463,ice_cream_04s,unseen,,,,no,0.6392665000166744,52,61
3,001,31,m,r,memory_test,704,464,cloak_13s,unseen,,,,no,0.6401243000291288,52,61
3,001,31,m,r,memory_test,705,465,eggplant_01b,unseen,,,,no,0.6223842999897897,52,61
3,001,31,m,r,memory_test,706,466,staple_02s,unseen,,,,no,0.613482299959287,52,61
3,001,31,m,r,memory_test,707,467,vacuum_11s,seen,no,low,uncontrolled,no,0.7172848000191152,51,62
3,001,31,m,r,memory_test,708,468,bowling_ball_01b,seen,yes,low,controlled,no,0.9090273999609053,51,62
3,001,31,m,r,memory_test,709,469,koala_10s,seen,no,low,uncontrolled,no,0.7071557999588549,51,62
3,001,31,m,r,memory_test,710,470,ginger_03s,seen,yes,high,controlled,yes,1.233085900079459,51,61
3,001,31,m,r,memory_test,711,471,eggshell_10s,unseen,,,,no,0.6013816001359373,52,61
3,001,31,m,r,memory_test,712,472,pantsuit_07s,seen,yes,low,controlled,yes,0.793418199988082,51,61
3,001,31,m,r,memory_test,713,473,float_08s,seen,no,high,uncontrolled,no,0.9067314001731575,51,62
3,001,31,m,r,memory_test,714,474,spacesuit_06s,seen,yes,high,controlled,yes,1.8012891001999378,51,61
3,001,31,m,r,memory_test,715,475,apron_10s,unseen,,,,no,0.5254180000629276,52,61
3,001,31,m,r,memory_test,716,476,bedpan_13s,seen,no,high,uncontrolled,no,0.5645101999398321,51,62
3,001,31,m,r,memory_test,717,477,saffron_14s,seen,yes,high,controlled,no,0.48997120000422,51,62
3,001,31,m,r,memory_test,718,478,dishrag_10s,seen,yes,low,controlled,no,0.5357437999919057,51,62
3,001,31,m,r,memory_test,719,479,test_tube_06s,unseen,,,,no,1.102643599966541,52,61
3,001,31,m,r,memory_test,720,480,wallet_04s,unseen,,,,no,0.6112226999830455,52,61
