thisRow.t,notes,overall_trial_num,participant,session,age,gender,handedness,phase,calib_target,n_shapes,block_num,trial_in_block,prop_used,stimulus_logit,detection_accuracy,is_timeout,rt_choice,early_response,true_controlled,response_controlled,quest_alpha_sd,mean_evidence,sum_evidence,var_evidence,target_snippet_id,distractor_snippet_ids,quest_alpha_mean,quest_beta_mean,quest_beta_sd,quest_lambda_mean,quest_lambda_sd,control_condition,threshold_75,agency_rating,img_A_name,img_B_name,trigger_stim_onset,trigger_motion_start,trigger_resp_onset,trigger_resp_val,participant,session,age,gender,handedness,quest_prop_high,quest_high_converged,quest_prop_low,quest_low_converged,miniblock_order,starts_with,
,,1,2,001,23,f,r,calibration,0.85,2,-1,1,0.6580745541515514,0.654725510385422,1,False,1.4334324999945238,False,dot,dot,0.8033587196838967,6.796008643078629,1216.4855471110745,91.24968198810707,702,[np.int64(990)],0.8833033316116574,3.2168895046329116,2.0446371587020717,0.025760922364598603,0.021491052549208363,,,,,,,,,,2,001,23,f,r,,,,,,,
,,2,2,001,23,f,r,calibration,0.85,2,-1,2,0.6580745541515514,0.654725510385422,0,False,1.032855199999176,False,dot,square,0.6125351949307037,6.100305288581885,1104.1552572333212,112.83015279564009,258,[np.int64(540)],1.2607715311181225,3.267404241222805,2.0616890944107022,0.026370224062446997,0.02161000023761197,,,,,,,,,,2,001,23,f,r,,,,,,,
,,3,2,001,23,f,r,calibration,0.85,2,-1,3,0.7629446568996856,1.1688918660356877,1,False,1.1158339000539854,False,dot,dot,0.6284174747820036,6.104266828728672,1104.8722959998897,103.66351349200856,1012,[np.int64(527)],1.1485358949216589,3.24567304114891,2.0522566085198974,0.026078029180185036,0.021552715279757557,,,,,,,,,,2,001,23,f,r,,,,,,,
,,4,2,001,23,f,r,calibration,0.85,2,-1,4,0.7133701336716126,0.9118086882105548,1,False,1.1814691999461502,False,square,square,0.6456948738360178,16.02260882154522,2900.092196699685,207.56607949575672,1,[np.int64(1556)],1.031633141532518,3.2120890058047076,2.038568502451106,0.02581343086802934,0.021498356914454845,,,,,,,,,,2,001,23,f,r,,,,,,,
,,5,2,001,23,f,r,calibration,0.85,2,-1,5,0.7133701336716126,0.9118086882105548,0,False,1.0339860999956727,False,square,dot,0.5273297799301601,8.964825164614181,1622.6333547951667,171.29297147921878,1148,[np.int64(3)],1.323374050908287,3.250341795713057,2.052263698722532,0.026521917173125034,0.021633721707215673,,,,,,,,,,2,001,23,f,r,,,,,,,
,,6,2,001,23,f,r,calibration,0.85,2,-1,6,0.7629446568996856,1.1688918660356877,1,False,1.034298300044611,False,dot,dot,0.537126285638132,6.5003936083253056,1176.5712431068803,130.89215297797173,1573,[np.int64(818)],1.232683606514024,3.223023933421735,2.0407418156384565,0.02624024966865013,0.021580030383072487,,,,,,,,,,2,001,23,f,r,,,,,,,
,,7,2,001,23,f,r,calibration,0.85,2,-1,7,0.7629446568996856,1.1688918660356877,0,False,1.1328655000543222,False,dot,square,0.4546567511236845,8.45868264749221,1531.0215591960903,168.64746129877233,1085,[np.int64(1360)],1.4672442775754915,3.24839648653118,2.049079184113176,0.027020126290592875,0.02171641366036961,,,,,,,,,,2,001,23,f,r,,,,,,,
,,8,2,001,23,f,r,calibration,0.85,2,-1,8,0.806273406195118,1.4259750438608214,1,False,0.9955819000024348,False,dot,dot,0.4602658404312319,8.692779872368297,1573.3931568986618,200.81373641925944,894,[np.int64(1272)],1.3957338823894483,3.235091343512451,2.04262781815066,0.026712363676714652,0.021662782074951124,,,,,,,,,,2,001,23,f,r,,,,,,,
,,9,2,001,23,f,r,calibration,0.85,2,-1,9,0.806273406195118,1.4259750438608214,0,False,1.1163384000537917,False,dot,square,0.39570954124941554,8.825407818319883,1597.3988151158987,101.08312534445396,305,[np.int64(1466)],1.5983867767344229,3.226720876189514,2.0378171383195074,0.02764239405767955,0.021807335252119916,,,,,,,,,,2,001,23,f,r,,,,,,,
,,10,2,001,23,f,r,calibration,0.85,2,-1,10,0.806273406195118,1.4259750438608214,0,False,1.5460484999930486,False,square,dot,0.3345793733650495,15.020182973997489,2718.6531182935455,265.40910360621575,1275,[np.int64(513)],1.728738121586572,3.3253344350235032,2.0840260064457836,0.02825611995398728,0.021888145813726587,,,,,,,,,,2,001,23,f,r,,,,,,,
,,11,2,001,23,f,r,calibration,0.85,2,-1,11,0.843309065531368,1.683058221685953,1,False,1.0697828000411391,False,dot,dot,0.3434754058374093,8.141153424372895,1473.5487698114941,155.57165704552122,1259,[np.int64(1198)],nan,nan,nan,nan,nan,,,,,,,,,,2,001,23,f,r,,,,,,,
,,12,2,001,23,f,r,calibration,0.85,2,-1,12,0.843309065531368,1.683058221685953,0,False,1.8990307999774814,False,dot,square,0.29218546912465576,13.307696289821427,2408.6930284576783,266.36079961098056,1565,[np.int64(50)],nan,nan,nan,nan,nan,,,,,,,,,,2,001,23,f,r,,,,,,,
,,13,2,001,23,f,r,calibration,0.85,2,-1,13,0.843309065531368,1.683058221685953,1,False,0.9967885999940336,False,dot,dot,0.30270076632036813,10.001533509907697,1810.2775652932933,193.56331753308623,138,[np.int64(1405)],nan,nan,nan,nan,nan,,,,,,,,,,2,001,23,f,r,,,,,,,
,,14,2,001,23,f,r,calibration,0.85,2,-1,14,0.843309065531368,1.683058221685953,1,False,1.1971619999967515,False,dot,dot,0.31137873941683825,0.7953372925193906,143.9560499460097,11.84089813389231,353,[np.int64(308)],nan,nan,nan,nan,nan,,,,,,,,,,2,001,23,f,r,,,,,,,
,,15,2,001,23,f,r,calibration,0.85,2,-1,15,0.843309065531368,1.683058221685953,1,False,0.947903799940832,False,dot,dot,0.31802181359197984,8.885606800966398,1608.294830974918,187.6310534107163,980,[np.int64(649)],nan,nan,nan,nan,nan,,,,,,,,,,2,001,23,f,r,,,,,,,
,,16,2,001,23,f,r,calibration,0.85,2,-1,16,0.843309065531368,1.683058221685953,0,False,1.3024052999680862,False,square,dot,0.2785582237260182,6.443928953798625,1166.351140637551,107.48676609070462,1153,[np.int64(1391)],nan,nan,nan,nan,nan,,,,,,,,,,2,001,23,f,r,,,,,,,
,,17,2,001,23,f,r,calibration,0.85,2,-1,17,0.843309065531368,1.683058221685953,0,False,1.4000177000416443,False,square,dot,0.24277322566685058,5.172458445613482,936.2149786560402,83.58293600373074,1066,[np.int64(948)],nan,nan,nan,nan,nan,,,,,,,,,,2,001,23,f,r,,,,,,,
,,18,2,001,23,f,r,calibration,0.85,2,-1,18,0.8743676768795192,1.940141399511088,1,False,2.530080100055784,False,dot,dot,0.24793934528511755,10.428319007598555,1887.5257403753383,233.60735057987506,849,[np.int64(943)],nan,nan,nan,nan,nan,,,,,,,,,,2,001,23,f,r,,,,,,,
,,19,2,001,23,f,r,calibration,0.85,2,-1,19,0.8743676768795192,1.940141399511088,1,False,1.2482407999923453,False,square,square,0.25208465792054374,12.559087506868611,2273.1948387432185,209.02061982210572,762,[np.int64(330)],nan,nan,nan,nan,nan,,,,,,,,,,2,001,23,f,r,,,,,,,
,,20,2,001,23,f,r,calibration,0.85,2,-1,20,0.843309065531368,1.683058221685953,0,False,1.1715754999313504,False,dot,square,0.22312513137593096,9.871831614942899,1786.8015223046646,175.4226616171608,1162,[np.int64(1284)],1.89276499488199,3.514712604638401,2.177985590516325,0.0293859693314728,0.02198965672792872,,,,,,,,,,2,001,23,f,r,,,,,,,
,,21,2,001,23,f,r,calibration,0.85,2,-1,21,0.8743676768795192,1.940141399511088,1,False,2.1850443000439554,False,square,square,0.22724595026500827,10.974277877189515,1986.344295771302,199.94984714059837,689,[np.int64(1292)],nan,nan,nan,nan,nan,,,,,,,,,,2,001,23,f,r,,,,,,,
,,22,2,001,23,f,r,calibration,0.85,2,-1,22,0.8743676768795192,1.940141399511088,1,False,1.265428900020197,False,dot,dot,0.23047893570915842,6.4724879854442445,1171.5203253654083,158.54727075483055,1194,[np.int64(195)],nan,nan,nan,nan,nan,,,,,,,,,,2,001,23,f,r,,,,,,,
,,23,2,001,23,f,r,calibration,0.85,2,-1,23,0.8743676768795192,1.940141399511088,1,False,1.1353609999641776,False,dot,dot,0.23282073567497746,6.293658008397028,1139.152099519862,145.45459724768702,988,[np.int64(1398)],nan,nan,nan,nan,nan,,,,,,,,,,2,001,23,f,r,,,,,,,
,,24,2,001,23,f,r,calibration,0.85,2,-1,24,0.8743676768795192,1.940141399511088,1,False,1.1720582999987528,False,square,square,0.23429678120127223,8.84606761306351,1601.1382379644954,172.50109220974244,247,[np.int64(1082)],nan,nan,nan,nan,nan,,,,,,,,,,2,001,23,f,r,,,,,,,
,,25,2,001,23,f,r,calibration,0.85,2,-1,25,0.8743676768795192,1.940141399511088,1,False,1.2034285999834538,False,square,square,0.23495983227417497,6.067902544270438,1098.2903605129493,116.81923142914746,756,[np.int64(1044)],nan,nan,nan,nan,nan,,,,,,,,,,2,001,23,f,r,,,,,,,
,,26,2,001,23,f,r,calibration,0.85,2,-1,26,0.8743676768795192,1.940141399511088,1,False,1.252716499962844,False,square,square,0.2348866050562468,10.782126350205557,1951.5648693872058,189.7463884814158,1274,[np.int64(1438)],nan,nan,nan,nan,nan,,,,,,,,,,2,001,23,f,r,,,,,,,
,,27,2,001,23,f,r,calibration,0.85,2,-1,27,0.843309065531368,1.683058221685953,1,False,1.516325999982655,False,dot,dot,0.23785340822722656,12.418114281177399,2247.678684893109,233.81556051102226,118,[np.int64(461)],nan,nan,nan,nan,nan,,,,,,,,,,2,001,23,f,r,,,,,,,
,,28,2,001,23,f,r,calibration,0.85,2,-1,28,0.843309065531368,1.683058221685953,1,False,1.5029457000782713,False,square,square,0.23996096759130958,17.157982952118413,3105.594914333433,230.47953918853113,69,[np.int64(1228)],nan,nan,nan,nan,nan,,,,,,,,,,2,001,23,f,r,,,,,,,
,,29,2,001,23,f,r,calibration,0.85,2,-1,29,0.843309065531368,1.683058221685953,1,False,1.2697359999874607,False,dot,dot,0.24124105465789775,5.994062828248276,1084.9253719129379,100.0187546049218,985,[np.int64(1227)],nan,nan,nan,nan,nan,,,,,,,,,,2,001,23,f,r,,,,,,,
,,30,2,001,23,f,r,calibration,0.85,2,-1,30,0.843309065531368,1.683058221685953,1,False,1.0714570999844,False,dot,dot,0.2417512478341396,14.615844950048057,2645.4679359586985,254.9538173095382,151,[np.int64(939)],1.6528792694430128,3.64447183866739,2.232579606995594,0.026036752182588725,0.021500024838883074,,,,,,,,,,2,001,23,f,r,,,,,,,
,,31,2,001,23,f,r,calibration,0.85,2,-1,31,0.843309065531368,1.683058221685953,1,False,1.3525728998938575,False,square,square,0.24156996921924165,8.83765046681992,1599.6147344944054,176.9620133412908,295,[np.int64(862)],nan,nan,nan,nan,nan,,,,,,,,,,2,001,23,f,r,,,,,,,
,,32,2,001,23,f,r,calibration,0.85,2,-1,32,0.843309065531368,1.683058221685953,1,False,1.0851995999692008,False,square,square,0.24079064258098765,11.911960769654536,2156.064899307471,174.89326471292694,647,[np.int64(609)],nan,nan,nan,nan,nan,,,,,,,,,,2,001,23,f,r,,,,,,,
,,33,2,001,23,f,r,calibration,0.85,2,-1,33,0.843309065531368,1.683058221685953,1,False,1.0510178999975324,False,dot,dot,0.23951551340805868,8.123529027725455,1470.3587540183075,162.7151182739444,89,[np.int64(973)],nan,nan,nan,nan,nan,,,,,,,,,,2,001,23,f,r,,,,,,,
,,34,2,001,23,f,r,calibration,0.85,2,-1,34,0.843309065531368,1.683058221685953,1,False,2.0865913999732584,False,square,square,0.23784964489990879,14.544801835472814,2632.6091322205793,186.5352378408187,1520,[np.int64(1216)],nan,nan,nan,nan,nan,,,,,,,,,,2,001,23,f,r,,,,,,,
,,35,2,001,23,f,r,calibration,0.85,2,-1,35,0.843309065531368,1.683058221685953,1,False,1.2189350000116974,False,square,square,0.23589552582450277,14.059443273211532,2544.759232451287,202.02525583726396,905,[np.int64(551)],nan,nan,nan,nan,nan,,,,,,,,,,2,001,23,f,r,,,,,,,
,,36,2,001,23,f,r,calibration,0.85,2,-1,36,0.843309065531368,1.683058221685953,1,False,1.2687737999949604,False,dot,dot,0.23374861305844885,8.471399611547895,1533.323329690169,184.0690119096785,789,[np.int64(743)],nan,nan,nan,nan,nan,,,,,,,,,,2,001,23,f,r,,,,,,,
,,37,2,001,23,f,r,calibration,0.85,2,-1,37,0.843309065531368,1.683058221685953,0,False,1.3359619000693783,False,square,dot,0.22252125263035785,7.7710359012260515,1406.5574981219154,141.29212819435799,1448,[np.int64(627)],nan,nan,nan,nan,nan,,,,,,,,,,2,001,23,f,r,,,,,,,
,,38,2,001,23,f,r,calibration,0.85,2,-1,38,0.843309065531368,1.683058221685953,1,False,1.2002241999143735,False,dot,dot,0.2210487283447493,12.289099852577682,2224.3270733165605,245.98419972581195,929,[np.int64(212)],nan,nan,nan,nan,nan,,,,,,,,,,2,001,23,f,r,,,,,,,
,,39,2,001,23,f,r,calibration,0.85,2,-1,39,0.843309065531368,1.683058221685953,1,False,1.1318869999377057,False,square,square,0.21941627160481605,10.899077359428828,1972.7330020566178,193.0031438290842,875,[np.int64(823)],nan,nan,nan,nan,nan,,,,,,,,,,2,001,23,f,r,,,,,,,
,,40,2,001,23,f,r,calibration,0.85,2,-1,40,0.843309065531368,1.683058221685953,1,False,1.7018737000180408,False,dot,dot,0.21768270441461815,18.810693761866293,3404.7355708977993,211.63145948957387,1086,[np.int64(748)],1.5302764317868514,3.723264093114467,2.259176109835211,0.024401034166061784,0.021103512820414703,,,,,,,,,,2,001,23,f,r,,,,,,,
,,41,2,001,23,f,r,calibration,0.85,2,-1,41,0.843309065531368,1.683058221685953,1,False,1.5183184000197798,False,square,square,0.21589904103556654,19.152405928143498,3466.585472993973,193.50820634059502,1233,[np.int64(1567)],nan,nan,nan,nan,nan,,,,,,,,,,2,001,23,f,r,,,,,,,
,,42,2,001,23,f,r,calibration,0.85,2,-1,42,0.843309065531368,1.683058221685953,1,False,1.5039385999552906,False,dot,dot,0.2141079585178575,15.064112900378351,2726.6044349684817,199.33194268862977,103,[np.int64(1583)],nan,nan,nan,nan,nan,,,,,,,,,,2,001,23,f,r,,,,,,,
,,43,2,001,23,f,r,calibration,0.85,2,-1,43,0.843309065531368,1.683058221685953,1,False,0.8690981999970973,False,square,square,0.21234377979471541,14.391205424572938,2604.8081818477017,176.08351112784854,674,[np.int64(99)],nan,nan,nan,nan,nan,,,,,,,,,,2,001,23,f,r,,,,,,,
,,44,2,001,23,f,r,calibration,0.85,2,-1,44,0.806273406195118,1.4259750438608214,1,False,1.4046480000251904,False,dot,dot,0.21421373318711098,16.11302482126706,2916.457492649338,216.72654683135946,1007,[np.int64(644)],nan,nan,nan,nan,nan,,,,,,,,,,2,001,23,f,r,,,,,,,
,,45,2,001,23,f,r,calibration,0.85,2,-1,45,0.806273406195118,1.4259750438608214,1,False,1.05187109997496,False,square,square,0.2157682272070163,12.010815205858016,2173.957552260301,208.11760027889503,1363,[np.int64(1023)],nan,nan,nan,nan,nan,,,,,,,,,,2,001,23,f,r,,,,,,,
,,46,2,001,23,f,r,calibration,0.85,2,-1,46,0.806273406195118,1.4259750438608214,1,False,1.3691528000636026,False,square,square,0.21698624094937052,14.50271591729525,2624.99158103044,238.95566324138284,1050,[np.int64(719)],nan,nan,nan,nan,nan,,,,,,,,,,2,001,23,f,r,,,,,,,
,,47,2,001,23,f,r,calibration,0.85,2,-1,47,0.806273406195118,1.4259750438608214,1,False,1.5031758999684826,False,dot,dot,0.2178570649307257,14.040877437853016,2541.398816251396,210.54757003932122,1530,[np.int64(1076)],nan,nan,nan,nan,nan,,,,,,,,,,2,001,23,f,r,,,,,,,
,,48,2,001,23,f,r,calibration,0.85,2,-1,48,0.806273406195118,1.4259750438608214,1,False,1.2537812000373378,False,square,square,0.21838067579230075,17.41180394182011,3151.53651346944,234.2183370551887,1525,[np.int64(1404)],nan,nan,nan,nan,nan,,,,,,,,,,2,001,23,f,r,,,,,,,
,,49,2,001,23,f,r,calibration,0.85,2,-1,49,0.806273406195118,1.4259750438608214,1,False,1.3871162999421358,False,square,square,0.2185675297587211,16.570887585345375,2999.3306529475126,167.6521611852075,1316,[np.int64(142)],nan,nan,nan,nan,nan,,,,,,,,,,2,001,23,f,r,,,,,,,
,,50,2,001,23,f,r,calibration,0.85,2,-1,50,0.806273406195118,1.4259750438608214,1,False,1.3022757000289857,False,dot,dot,0.21843779016227913,11.38830143335961,2061.2825594380893,148.07524337981113,370,[np.int64(506)],1.316030024186859,3.9700893105889747,2.3626554767875745,0.021330354483394688,0.020134429987839177,,,,,,,,,,2,001,23,f,r,,,,,,,
,,51,2,001,23,f,r,calibration,0.85,2,-1,51,0.806273406195118,1.4259750438608214,1,False,1.3190482000354677,False,square,square,0.21802004463395533,16.235905719578856,2938.698935243773,203.26765238947516,1442,[np.int64(981)],nan,nan,nan,nan,nan,,,,,,,,,,2,001,23,f,r,,,,,,,
,,52,2,001,23,f,r,calibration,0.85,2,-1,52,0.806273406195118,1.4259750438608214,1,False,1.0703091999748722,False,dot,dot,0.21734960533704012,16.970401925151798,3071.642748452475,204.71010775474926,837,[np.int64(1539)],nan,nan,nan,nan,nan,,,,,,,,,,2,001,23,f,r,,,,,,,
,,53,2,001,23,f,r,calibration,0.85,2,-1,53,0.806273406195118,1.4259750438608214,1,False,0.8030350999906659,False,dot,dot,0.21646651712452838,22.827788265277714,4131.829676015266,245.21393361439144,246,[np.int64(937)],nan,nan,nan,nan,nan,,,,,,,,,,2,001,23,f,r,,,,,,,
,,54,2,001,23,f,r,calibration,0.85,2,-1,54,0.806273406195118,1.4259750438608214,1,False,1.1006675000535324,False,dot,dot,0.2154134201631645,11.791704991149224,2134.2986033980096,179.48042098558048,1377,[np.int64(745)],nan,nan,nan,nan,nan,,,,,,,,,,2,001,23,f,r,,,,,,,
,,55,2,001,23,f,r,calibration,0.85,2,-1,55,0.7629446568996856,1.1688918660356877,1,False,1.403312100097537,False,square,square,0.21850460126820256,12.132435458435884,2195.970817976895,171.21566847981535,198,[np.int64(304)],nan,nan,nan,nan,nan,,,,,,,,,,2,001,23,f,r,,,,,,,
,,56,2,001,23,f,r,calibration,0.85,2,-1,56,0.7629446568996856,1.1688918660356877,1,False,0.9694805999752134,False,dot,dot,0.2210648842083241,12.632425137332746,2286.468949857227,229.76189703818963,1390,[np.int64(713)],nan,nan,nan,nan,nan,,,,,,,,,,2,001,23,f,r,,,,,,,
,,57,2,001,23,f,r,calibration,0.85,2,-1,57,0.7629446568996856,1.1688918660356877,1,False,1.303791300044395,False,square,square,0.22306602370546438,18.025580202968417,3262.6300167372838,162.5778032065411,1253,[np.int64(979)],nan,nan,nan,nan,nan,,,,,,,,,,2,001,23,f,r,,,,,,,
,,58,2,001,23,f,r,calibration,0.85,2,-1,58,0.7629446568996856,1.1688918660356877,1,False,1.2368839000118896,False,dot,dot,0.22450344540559536,19.076042778922666,3452.763742985003,204.4724607918402,661,[np.int64(1566)],nan,nan,nan,nan,nan,,,,,,,,,,2,001,23,f,r,,,,,,,
,,59,2,001,23,f,r,calibration,0.85,2,-1,59,0.7629446568996856,1.1688918660356877,1,False,1.5375606999732554,False,dot,dot,0.22539538358523364,21.835142610045317,3952.1608124182026,237.41503678442447,48,[np.int64(457)],nan,nan,nan,nan,nan,,,,,,,,,,2,001,23,f,r,,,,,,,
,,60,2,001,23,f,r,calibration,0.85,2,-1,60,0.7629446568996856,1.1688918660356877,1,False,2.103924500057474,False,square,square,0.22578050549395598,15.438298428096097,2794.3320154853936,201.68537646330387,1121,[np.int64(1063)],1.0831735283797133,4.17563881322616,2.436121231335428,0.018596158637862174,0.018969759294934895,,,,,,,,,,2,001,23,f,r,,,,,,,
,,61,2,001,23,f,r,calibration,0.85,2,-1,61,0.7629446568996856,1.1688918660356877,1,False,1.8492640999611467,False,dot,dot,0.22571427929169202,15.954530666567845,2887.77005064878,219.81919241291712,1521,[np.int64(384)],nan,nan,nan,nan,nan,,,,,,,,,,2,001,23,f,r,,,,,,,
,,62,2,001,23,f,r,calibration,0.85,2,-1,62,0.7629446568996856,1.1688918660356877,0,False,3.536828099982813,False,square,dot,0.20621561953461442,19.86553400201397,3595.6616543645287,205.96468720272716,1188,[np.int64(1022)],nan,nan,nan,nan,nan,,,,,,,,,,2,001,23,f,r,,,,,,,
,,63,2,001,23,f,r,calibration,0.85,2,-1,63,0.7629446568996856,1.1688918660356877,1,False,1.167760799988173,False,dot,dot,0.20653944991862194,19.31887257200887,3496.7159355336057,241.4672234948381,1433,[np.int64(1154)],nan,nan,nan,nan,nan,,,,,,,,,,2,001,23,f,r,,,,,,,
,,64,2,001,23,f,r,calibration,0.85,2,-1,64,0.7629446568996856,1.1688918660356877,1,False,0.898174999980256,False,square,square,0.20654665269155428,19.72921919573834,3570.98867442864,194.13967993654379,881,[np.int64(366)],nan,nan,nan,nan,nan,,,,,,,,,,2,001,23,f,r,,,,,,,
,,65,2,001,23,f,r,calibration,0.85,2,-1,65,0.7629446568996856,1.1688918660356877,1,False,1.0355334000196308,False,dot,dot,0.20627306014546795,15.328351186070176,2774.4315646787018,195.06522663412363,942,[np.int64(180)],nan,nan,nan,nan,nan,,,,,,,,,,2,001,23,f,r,,,,,,,
,,66,2,001,23,f,r,calibration,0.85,2,-1,66,0.7629446568996856,1.1688918660356877,1,False,1.1525678999023512,False,square,square,0.20575978683226331,10.896560657312042,1972.2774789734797,178.78415349254965,1594,[np.int64(266)],nan,nan,nan,nan,nan,,,,,,,,,,2,001,23,f,r,,,,,,,
,,67,2,001,23,f,r,calibration,0.85,2,-1,67,0.7629446568996856,1.1688918660356877,1,False,1.3528187000192702,False,dot,dot,0.20505104273529537,13.079323674158015,2367.3575850226007,165.67496069730635,1395,[np.int64(460)],nan,nan,nan,nan,nan,,,,,,,,,,2,001,23,f,r,,,,,,,
,,68,2,001,23,f,r,calibration,0.85,2,-1,68,0.7629446568996856,1.1688918660356877,1,False,0.7168627999490127,False,dot,dot,0.2041919817939909,14.511185528355831,2626.5245806324056,179.25831990593758,1502,[np.int64(686)],nan,nan,nan,nan,nan,,,,,,,,,,2,001,23,f,r,,,,,,,
,,69,2,001,23,f,r,calibration,0.85,2,-1,69,0.7629446568996856,1.1688918660356877,1,False,1.0873237999621779,False,square,square,0.20322670739396317,17.899717669524005,3239.848898183845,220.88359448496715,1126,[np.int64(1103)],nan,nan,nan,nan,nan,,,,,,,,,,2,001,23,f,r,,,,,,,
,,70,2,001,23,f,r,calibration,0.85,2,-1,70,0.7629446568996856,1.1688918660356877,1,False,1.3005182000342757,False,square,square,0.20219653951645306,6.996553159317937,1266.3761218365466,148.46139812587205,978,[np.int64(1054)],0.9832555067773066,4.406143803224707,2.5136498225832438,0.01718167701644119,0.018233533213161825,,,,,,,,,,2,001,23,f,r,,,,,,,
,,71,2,001,23,f,r,calibration,0.85,2,-1,71,0.7629446568996856,1.1688918660356877,1,False,0.9856238000793383,False,square,square,0.20113862425047216,16.542825222850357,2994.2513653359147,200.33014283157758,926,[np.int64(39)],nan,nan,nan,nan,nan,,,,,,,,,,2,001,23,f,r,,,,,,,
,,72,2,001,23,f,r,calibration,0.85,2,-1,72,0.7133701336716126,0.9118086882105548,1,False,1.0380526999942958,False,square,square,0.2043436269437805,18.685468377508773,3382.069776329088,229.28964650748927,156,[np.int64(824)],nan,nan,nan,nan,nan,,,,,,,,,,2,001,23,f,r,,,,,,,
,,73,2,001,23,f,r,calibration,0.85,2,-1,73,0.7133701336716126,0.9118086882105548,1,False,1.350169699988328,False,square,square,0.20718121364057362,16.698167484130753,3022.368314627666,200.42007315433594,1570,[np.int64(1418)],nan,nan,nan,nan,nan,,,,,,,,,,2,001,23,f,r,,,,,,,
,,74,2,001,23,f,r,calibration,0.85,2,-1,74,0.7133701336716126,0.9118086882105548,1,False,1.653818399994634,False,dot,dot,0.20961872835026069,16.351716296696296,2959.6606497020293,174.4370348776319,788,[np.int64(217)],nan,nan,nan,nan,nan,,,,,,,,,,2,001,23,f,r,,,,,,,
,,75,2,001,23,f,r,calibration,0.85,2,-1,75,0.7133701336716126,0.9118086882105548,1,False,1.4534508999204263,False,square,square,0.21164059897937837,17.03883872848689,3084.0298098561275,206.3959412141244,1231,[np.int64(165)],nan,nan,nan,nan,nan,,,,,,,,,,2,001,23,f,r,,,,,,,
,,76,2,001,23,f,r,calibration,0.85,2,-1,76,0.7133701336716126,0.9118086882105548,1,False,1.33586979995016,False,square,square,0.21324847255359874,18.16960222046453,3288.69800190408,201.6694456547935,446,[np.int64(839)],nan,nan,nan,nan,nan,,,,,,,,,,2,001,23,f,r,,,,,,,
,,77,2,001,23,f,r,calibration,0.85,2,-1,77,0.7133701336716126,0.9118086882105548,1,False,0.9042824999196455,False,square,square,0.21446016672206478,18.765167489421366,3396.4953155852672,204.9205882455041,321,[np.int64(517)],nan,nan,nan,nan,nan,,,,,,,,,,2,001,23,f,r,,,,,,,
,,78,2,001,23,f,r,calibration,0.85,2,-1,78,0.7133701336716126,0.9118086882105548,1,False,1.5879057999700308,False,square,square,0.21530755237156368,16.45025306968715,2977.495805613374,210.60317939716433,359,[np.int64(187)],nan,nan,nan,nan,nan,,,,,,,,,,2,001,23,f,r,,,,,,,
,,79,2,001,23,f,r,calibration,0.85,2,-1,79,0.7133701336716126,0.9118086882105548,1,False,1.4999326000688598,False,dot,dot,0.21583358060998128,14.166356356778174,2564.1105005768495,206.5393025090675,534,[np.int64(1542)],nan,nan,nan,nan,nan,,,,,,,,,,2,001,23,f,r,,,,,,,
,,80,2,001,23,f,r,calibration,0.85,2,-1,80,0.7133701336716126,0.9118086882105548,1,False,1.4212296000914648,False,dot,dot,0.2160887471633899,17.160480968822252,3106.0470553568275,272.24062715960474,294,[np.int64(135)],0.7576430592478901,4.624039896559307,2.572283086790102,0.014970225992655331,0.016926466284298374,,,,,,,,,,2,001,23,f,r,,,,,,,
,,81,2,001,23,f,r,calibration,0.55,2,0,1,0.347354013008391,-0.6306903787402434,1,False,1.4708542000735179,False,dot,dot,0.9585022178944526,1.415959097965718,256.28859673179494,322.0491746268278,303,[np.int64(1152)],-0.6105307855798056,3.2449087058269095,2.055422663760532,0.0257181206205907,0.02148187862845949,,,,,,,,,,2,001,23,f,r,0.7305673713834197,False,,,,,
,,82,2,001,23,f,r,calibration,0.55,2,0,2,0.347354013008391,-0.6306903787402434,0,False,1.0693066000239924,False,square,dot,0.8159747285924219,3.3899353080201804,613.5782907516526,313.6990260440497,1192,[np.int64(1160)],-0.05001588787199827,3.2319921310993145,2.0487151302990343,0.026606840000665752,0.021650718437986983,,,,,,,,,,2,001,23,f,r,0.7305673713834197,False,,,,,
,,83,2,001,23,f,r,calibration,0.55,2,0,3,0.47090191089840744,-0.11652402308997703,1,False,1.0658600000897422,False,dot,dot,0.801903934669203,8.872409410447501,1605.9061032909976,188.8058725584775,244,[np.int64(899)],-0.20878316709790282,3.2302369707761205,2.048860779443661,0.02629789449460237,0.021592525363363452,,,,,,,,,,2,001,23,f,r,0.7305673713834197,False,,,,,
,,84,2,001,23,f,r,calibration,0.55,2,0,4,0.47090191089840744,-0.11652402308997703,0,False,1.0506519000045955,False,square,dot,0.7071512296672129,2.0011206787880806,362.2028428606426,85.64870900459694,1560,[np.int64(196)],0.2510576904178687,3.1840836951256106,2.026016194869593,0.027342274033603536,0.02176658827638605,,,,,,,,,,2,001,23,f,r,0.7305673713834197,False,,,,,
,,85,2,001,23,f,r,calibration,0.55,2,0,5,0.5981210736084265,0.3976423325602886,1,False,1.084559499984607,False,dot,dot,0.6833259278211975,9.821191499768736,1777.6356614581412,192.8013222371167,923,[np.int64(1171)],0.12918083417360202,3.203844234595691,2.035146243239583,0.026993165067684836,0.021709224314472808,,,,,,,,,,2,001,23,f,r,0.7305673713834197,False,,,,,
,,86,2,001,23,f,r,calibration,0.55,2,0,6,0.5981210736084265,0.3976423325602886,1,False,0.93421890004538,False,dot,dot,0.653702933015311,9.054804322176189,1638.9195823138903,159.38640522412945,650,[np.int64(85)],0.021102708846903715,3.23726362988879,2.0499719034986152,0.026625389980966807,0.02164426528130463,,,,,,,,,,2,001,23,f,r,0.7305673713834197,False,,,,,
,,87,2,001,23,f,r,calibration,0.55,2,0,7,0.5981210736084265,0.3976423325602886,1,False,1.0690213000634685,False,dot,dot,0.622462615558969,13.089553837477311,2369.2092445833932,196.82708191649948,1307,[np.int64(1519)],-0.07209342720873406,3.2820227278252525,2.0690876827293225,0.02624274738945083,0.021571736289729825,,,,,,,,,,2,001,23,f,r,0.7305673713834197,False,,,,,
,,88,2,001,23,f,r,calibration,0.55,2,0,8,0.5350820483873121,0.14055915473515587,1,False,1.0851309000281617,False,dot,dot,0.5998252637317587,4.453416002174109,806.0682963935137,106.85965298590406,1146,[np.int64(1540)],-0.1665049055447244,3.314480351685802,2.0836815184761845,0.02588624800847472,0.02149970243352467,,,,,,,,,,2,001,23,f,r,0.7305673713834197,False,,,,,
,,89,2,001,23,f,r,calibration,0.55,2,0,9,0.5350820483873121,0.14055915473515587,1,False,1.2523443000391126,False,dot,dot,0.576905597872152,7.0757546954705415,1280.711599880168,197.74394297701,603,[np.int64(1289)],-0.249794871825646,3.3585435404371276,2.102764736005491,0.02551639591671743,0.021420297175972387,,,,,,,,,,2,001,23,f,r,0.7305673713834197,False,,,,,
,,90,2,001,23,f,r,calibration,0.55,2,0,10,0.47090191089840744,-0.11652402308997703,1,False,1.2203584000235423,False,dot,dot,0.5644805101561834,3.769653762463343,682.3073310058651,83.79716594546797,814,[np.int64(331)],-0.3372826153643254,3.3794018824687866,2.1116860013455083,0.025179230310845534,0.021343848565628164,,,,,,,,,,2,001,23,f,r,0.7305673713834197,False,,,,,
,,91,2,001,23,f,r,calibration,0.55,2,0,11,0.40766968306220214,-0.37360720091511007,0,False,1.186875999905169,False,square,dot,0.49030205317464337,1.6728222814756917,302.7808329471002,119.31036619806746,515,[np.int64(240)],nan,nan,nan,nan,nan,,,,,,,,,,2,001,23,f,r,0.7305673713834197,False,,,,,
,,92,2,001,23,f,r,calibration,0.55,2,0,12,0.5981210736084265,0.3976423325602886,1,False,1.0174146000063047,False,square,square,0.46243425569720725,8.730490280608945,1580.2187407902193,137.68019097000567,507,[np.int64(1517)],nan,nan,nan,nan,nan,,,,,,,,,,2,001,23,f,r,0.7305673713834197,False,,,,,
,,93,2,001,23,f,r,calibration,0.55,2,0,13,0.5350820483873121,0.14055915473515587,1,False,1.248203800059855,False,dot,dot,0.4426772693972816,8.892659627716396,1609.5713926166677,140.4137709578594,1291,[np.int64(696)],nan,nan,nan,nan,nan,,,,,,,,,,2,001,23,f,r,0.7305673713834197,False,,,,,
,,94,2,001,23,f,r,calibration,0.55,2,0,14,0.47090191089840744,-0.11652402308997703,1,False,1.172273200005293,False,dot,dot,0.43326377359472024,7.431518503556723,1345.1048491437668,120.05922253524098,1528,[np.int64(657)],nan,nan,nan,nan,nan,,,,,,,,,,2,001,23,f,r,0.7305673713834197,False,,,,,
,,95,2,001,23,f,r,calibration,0.55,2,0,15,0.47090191089840744,-0.11652402308997703,1,False,0.8687960000243038,False,dot,dot,0.4243558232284675,10.052428311626175,1819.4895244043375,267.29071822631795,815,[np.int64(325)],nan,nan,nan,nan,nan,,,,,,,,,,2,001,23,f,r,0.7305673713834197,False,,,,,
,,96,2,001,23,f,r,calibration,0.55,2,0,16,0.40766968306220214,-0.37360720091511007,1,False,1.1685397999826819,False,dot,dot,0.42656528917934466,1.590460330012259,287.8733197322189,175.65674580086122,1346,[np.int64(755)],nan,nan,nan,nan,nan,,,,,,,,,,2,001,23,f,r,0.7305673713834197,False,,,,,
,,97,2,001,23,f,r,calibration,0.55,2,0,17,0.40766968306220214,-0.37360720091511007,1,False,0.9885707000503317,False,dot,dot,0.42783136688583356,3.601577895078101,651.8855990091363,190.81467334149957,966,[np.int64(798)],nan,nan,nan,nan,nan,,,,,,,,,,2,001,23,f,r,0.7305673713834197,False,,,,,
,,98,2,001,23,f,r,calibration,0.55,2,0,18,0.40766968306220214,-0.37360720091511007,0,False,1.9198041999479756,False,dot,square,0.3716718495154453,3.306787055304565,598.5284570101262,166.58192017171976,188,[np.int64(7)],nan,nan,nan,nan,nan,,,,,,,,,,2,001,23,f,r,0.7305673713834197,False,,,,,
,,99,2,001,23,f,r,calibration,0.55,2,0,19,0.47090191089840744,-0.11652402308997703,1,False,0.8831384999211878,False,dot,dot,0.36139798551458685,12.902983381262255,2335.439992008468,313.6422555569802,928,[np.int64(202)],nan,nan,nan,nan,nan,,,,,,,,,,2,001,23,f,r,0.7305673713834197,False,,,,,
,,100,2,001,23,f,r,calibration,0.55,2,0,20,0.47090191089840744,-0.11652402308997703,1,False,1.0349476999836043,False,dot,dot,0.3524538069239188,3.3152001492826,600.0512270201506,124.24560796042981,9,[np.int64(827)],-0.346416187384034,3.6301526674350635,2.220815275502369,0.02420999930597706,0.0210858388722012,,,,,,,,,,2,001,23,f,r,0.7305673713834197,False,,,,,
,,101,2,001,23,f,r,calibration,0.55,2,0,21,0.47090191089840744,-0.11652402308997703,1,False,0.9868127000518143,False,square,square,0.3448943288787132,3.8079132457955787,689.2322974889997,165.56305583669757,927,[np.int64(415)],nan,nan,nan,nan,nan,,,,,,,,,,2,001,23,f,r,0.7305673713834197,False,,,,,
,,102,2,001,23,f,r,calibration,0.55,2,0,22,0.40766968306220214,-0.37360720091511007,1,False,0.8356371000409126,False,dot,dot,0.3457087401166166,3.5601148698565646,644.3807914440382,247.44392392968572,781,[np.int64(1155)],nan,nan,nan,nan,nan,,,,,,,,,,2,001,23,f,r,0.7305673713834197,False,,,,,
,,103,2,001,23,f,r,calibration,0.55,2,0,23,0.40766968306220214,-0.37360720091511007,1,False,0.7864867999451235,False,dot,dot,0.34640783443153045,7.489468763228736,1355.5938461444011,203.8073948401136,475,[np.int64(1455)],nan,nan,nan,nan,nan,,,,,,,,,,2,001,23,f,r,0.7305673713834197,False,,,,,
,,104,2,001,23,f,r,calibration,0.55,2,0,24,0.40766968306220214,-0.37360720091511007,1,False,1.2375627999426797,False,dot,dot,0.3469665785343438,7.219210915804306,1306.6771757605793,266.3613130795081,888,[np.int64(865)],nan,nan,nan,nan,nan,,,,,,,,,,2,001,23,f,r,0.7305673713834197,False,,,,,
,,105,2,001,23,f,r,calibration,0.55,2,0,25,0.347354013008391,-0.6306903787402434,1,False,1.3040584999835119,False,dot,dot,0.3566651594662255,5.136894480266917,929.777900928312,180.14974948661714,205,[np.int64(954)],nan,nan,nan,nan,nan,,,,,,,,,,2,001,23,f,r,0.7305673713834197,False,,,,,
,,106,2,001,23,f,r,calibration,0.55,2,0,26,0.347354013008391,-0.6306903787402434,1,False,1.2681506000226364,False,square,square,0.36550437155379223,3.8830976713758463,702.8406785190282,392.5865659821365,694,[np.int64(211)],nan,nan,nan,nan,nan,,,,,,,,,,2,001,23,f,r,0.7305673713834197,False,,,,,
,,107,2,001,23,f,r,calibration,0.55,2,0,27,0.347354013008391,-0.6306903787402434,1,False,0.9362575999693945,False,dot,dot,0.3731706363812218,4.546154631142789,822.8539882368448,240.06426425781893,115,[np.int64(626)],nan,nan,nan,nan,nan,,,,,,,,,,2,001,23,f,r,0.7305673713834197,False,,,,,
,,108,2,001,23,f,r,calibration,0.55,2,0,28,0.347354013008391,-0.6306903787402434,1,False,1.0173849000129849,False,dot,dot,0.3794666786724,1.3932182897340395,252.17251044186116,238.40237651241824,996,[np.int64(1494)],nan,nan,nan,nan,nan,,,,,,,,,,2,001,23,f,r,0.7305673713834197,False,,,,,
,,109,2,001,23,f,r,calibration,0.55,2,0,29,0.29156950079727495,-0.887773556565376,1,False,1.25312769995071,False,dot,dot,0.3944956827464386,2.2686756765916245,410.63029746308405,253.02276226657517,919,[np.int64(388)],nan,nan,nan,nan,nan,,,,,,,,,,2,001,23,f,r,0.7305673713834197,False,,,,,
,,110,2,001,23,f,r,calibration,0.55,2,0,30,0.29156950079727495,-0.887773556565376,1,False,1.2187668998958543,False,square,square,0.40772744696010604,2.9901337853391303,541.2142151463826,292.25990196389444,56,[np.int64(848)],-0.82927089766613,3.527566537024588,2.1631582948276096,0.021362344348929467,0.02017970324643638,,,,,,,,,,2,001,23,f,r,0.7305673713834197,False,,,,,
,,111,2,001,23,f,r,calibration,0.55,2,0,31,0.29156950079727495,-0.887773556565376,1,False,1.6029395000077784,False,square,square,0.41858368083325415,2.562296308474883,463.7756318339538,693.0452505688743,1109,[np.int64(1557)],nan,nan,nan,nan,nan,,,,,,,,,,2,001,23,f,r,0.7305673713834197,False,,,,,
,,112,2,001,23,f,r,calibration,0.55,2,0,32,0.29156950079727495,-0.887773556565376,1,False,0.9188892999663949,False,square,square,0.4267165058729375,2.514132166172801,455.057922077277,190.56457553409498,987,[np.int64(599)],nan,nan,nan,nan,nan,,,,,,,,,,2,001,23,f,r,0.7305673713834197,False,,,,,
,,113,2,001,23,f,r,calibration,0.55,2,0,33,0.2414297750189407,-1.1448567343905092,1,False,0.9195211000042036,False,square,square,0.4427164911745003,-0.19567555233401143,-35.41727497245607,631.5872443364433,508,[np.int64(807)],nan,nan,nan,nan,nan,,,,,,,,,,2,001,23,f,r,0.7305673713834197,False,,,,,
,,114,2,001,23,f,r,calibration,0.55,2,0,34,0.2414297750189407,-1.1448567343905092,1,False,1.1697888999478891,False,dot,dot,0.4554917485936642,3.4945236747024997,632.5087851211524,273.74617291715947,648,[np.int64(912)],nan,nan,nan,nan,nan,,,,,,,,,,2,001,23,f,r,0.7305673713834197,False,,,,,
,,115,2,001,23,f,r,calibration,0.55,2,0,35,0.2414297750189407,-1.1448567343905092,0,False,1.0319473000708967,False,square,dot,0.3731668026147429,1.6542340229648227,299.4163581566329,530.0711504114225,249,[np.int64(830)],nan,nan,nan,nan,nan,,,,,,,,,,2,001,23,f,r,0.7305673713834197,False,,,,,
,,116,2,001,23,f,r,calibration,0.55,2,0,36,0.29156950079727495,-0.887773556565376,1,False,1.0825787000358105,False,square,square,0.3749117943363228,5.420152675792887,981.0476343185126,297.65035646052434,463,[np.int64(1203)],nan,nan,nan,nan,nan,,,,,,,,,,2,001,23,f,r,0.7305673713834197,False,,,,,
,,117,2,001,23,f,r,calibration,0.55,2,0,37,0.29156950079727495,-0.887773556565376,0,False,1.6644687000662088,False,dot,square,0.3295096005338712,3.2117751388651485,581.3313001345919,501.31822728115895,126,[np.int64(605)],nan,nan,nan,nan,nan,,,,,,,,,,2,001,23,f,r,0.7305673713834197,False,,,,,
,,118,2,001,23,f,r,calibration,0.55,2,0,38,0.347354013008391,-0.6306903787402434,1,False,1.1144367000088096,False,dot,dot,0.32567144348593874,3.0347503012223385,549.2898045212432,150.12193024696168,478,[np.int64(194)],nan,nan,nan,nan,nan,,,,,,,,,,2,001,23,f,r,0.7305673713834197,False,,,,,
,,119,2,001,23,f,r,calibration,0.55,2,0,39,0.347354013008391,-0.6306903787402434,1,False,2.04931069992017,False,square,square,0.3213980370009869,4.141378356685489,749.5894825600735,177.64414678029195,637,[np.int64(1348)],nan,nan,nan,nan,nan,,,,,,,,,,2,001,23,f,r,0.7305673713834197,False,,,,,
,,120,2,001,23,f,r,calibration,0.55,2,0,40,0.29156950079727495,-0.887773556565376,1,False,0.8023961000144482,False,dot,dot,0.3222831192193764,2.4665373510794977,446.4432605453891,68.85665844342506,1084,[np.int64(1240)],-0.9133608877580153,3.4980599343188556,2.1472705528390996,0.020723668208077427,0.01991983286150212,,,,,,,,,,2,001,23,f,r,0.7305673713834197,False,,,,,
,,121,2,001,23,f,r,calibration,0.55,2,0,41,0.29156950079727495,-0.887773556565376,1,False,1.4860672000795603,False,square,square,0.3221849327630679,2.069508643728863,374.5810645149242,308.01413941486015,1372,[np.int64(1357)],nan,nan,nan,nan,nan,,,,,,,,,,2,001,23,f,r,0.7305673713834197,False,,,,,
,,122,2,001,23,f,r,calibration,0.55,2,0,42,0.29156950079727495,-0.887773556565376,1,False,0.9018232999369502,False,square,square,0.32125585008274815,2.87354709417717,520.1120240460677,410.57571107623716,887,[np.int64(909)],nan,nan,nan,nan,nan,,,,,,,,,,2,001,23,f,r,0.7305673713834197,False,,,,,
,,123,2,001,23,f,r,calibration,0.55,2,0,43,0.29156950079727495,-0.887773556565376,1,False,1.0877896000165492,False,dot,dot,0.319681158435918,1.8793305302052983,340.158825967159,222.16897185762565,124,[np.int64(410)],nan,nan,nan,nan,nan,,,,,,,,,,2,001,23,f,r,0.7305673713834197,False,,,,,
,,124,2,001,23,f,r,calibration,0.55,2,0,44,0.29156950079727495,-0.887773556565376,1,False,1.336271999985911,False,dot,dot,0.31765873246768167,3.950878001040414,715.1089181883149,371.37502247519836,28,[np.int64(323)],nan,nan,nan,nan,nan,,,,,,,,,,2,001,23,f,r,0.7305673713834197,False,,,,,
,,125,2,001,23,f,r,calibration,0.55,2,0,45,0.29156950079727495,-0.887773556565376,1,False,1.1180685999570414,False,dot,dot,0.3153804830749206,1.9247336589925463,348.3767922776509,397.07034675214015,1170,[np.int64(52)],nan,nan,nan,nan,nan,,,,,,,,,,2,001,23,f,r,0.7305673713834197,False,,,,,
,,126,2,001,23,f,r,calibration,0.55,2,0,46,0.2414297750189407,-1.1448567343905092,1,False,1.001616100082174,False,dot,dot,0.3195663941146056,3.1604659182804986,572.0443312087702,253.5079580943921,672,[np.int64(206)],nan,nan,nan,nan,nan,,,,,,,,,,2,001,23,f,r,0.7305673713834197,False,,,,,
,,127,2,001,23,f,r,calibration,0.55,2,0,47,0.2414297750189407,-1.1448567343905092,1,False,1.0692865999881178,False,square,square,0.32294692614825915,2.5143793277506004,455.10265832285864,86.65744637673446,531,[np.int64(631)],nan,nan,nan,nan,nan,,,,,,,,,,2,001,23,f,r,0.7305673713834197,False,,,,,
,,128,2,001,23,f,r,calibration,0.55,2,0,48,0.2414297750189407,-1.1448567343905092,1,False,1.1214873000280932,False,dot,dot,0.3255130779934771,2.5952296724774198,469.73657071841296,482.0211529847238,248,[np.int64(1256)],nan,nan,nan,nan,nan,,,,,,,,,,2,001,23,f,r,0.7305673713834197,False,,,,,
,,129,2,001,23,f,r,calibration,0.55,2,0,49,0.2414297750189407,-1.1448567343905092,1,False,1.5694307999219745,False,square,square,0.32730071987659537,1.6941472034522502,306.6406438248573,359.7853867221843,1345,[np.int64(606)],nan,nan,nan,nan,nan,,,,,,,,,,2,001,23,f,r,0.7305673713834197,False,,,,,
,,130,2,001,23,f,r,calibration,0.55,2,0,50,0.2414297750189407,-1.1448567343905092,1,False,0.9036637999815866,False,dot,dot,0.3283829939315511,3.69356363592357,668.5350181021662,408.4185207337149,541,[np.int64(236)],-1.3046050955112531,3.6738793381983803,2.2230521990250716,0.018045332401894838,0.018716761877284795,,,,,,,,,,2,001,23,f,r,0.7305673713834197,False,,,,,
,,131,2,001,23,f,r,calibration,0.55,2,0,51,0.19750845711691875,-1.4019399122156422,1,False,1.0525869999546558,False,square,square,0.33673916712781643,2.5010423861253455,452.68867188868757,585.049118462671,989,[np.int64(600)],nan,nan,nan,nan,nan,,,,,,,,,,2,001,23,f,r,0.7305673713834197,False,,,,,
,,132,2,001,23,f,r,calibration,0.55,2,0,52,0.19750845711691875,-1.4019399122156422,1,False,1.0314121000701562,False,dot,dot,0.3438257212354766,2.488581277309746,450.43321119306404,447.9802827811427,149,[np.int64(958)],nan,nan,nan,nan,nan,,,,,,,,,,2,001,23,f,r,0.7305673713834197,False,,,,,
,,133,2,001,23,f,r,calibration,0.55,2,0,53,0.19750845711691875,-1.4019399122156422,1,False,0.9697419001022354,False,square,square,0.34943818404572957,1.3032573507151013,235.88958047943333,558.5627103726513,569,[np.int64(586)],nan,nan,nan,nan,nan,,,,,,,,,,2,001,23,f,r,0.7305673713834197,False,,,,,
,,134,2,001,23,f,r,calibration,0.55,2,0,54,0.19750845711691875,-1.4019399122156422,0,False,1.485637699952349,False,square,dot,0.2958697439370379,1.592581180425574,288.2571936570289,222.1648907258357,1014,[np.int64(510)],nan,nan,nan,nan,nan,,,,,,,,,,2,001,23,f,r,0.7305673713834197,False,,,,,
,,135,2,001,23,f,r,calibration,0.55,2,0,55,0.2414297750189407,-1.1448567343905092,1,False,0.9141231999965385,False,square,square,0.2941833078214893,4.5735602053035604,827.8143971599445,328.54334095273975,485,[np.int64(307)],nan,nan,nan,nan,nan,,,,,,,,,,2,001,23,f,r,0.7305673713834197,False,,,,,
,,136,2,001,23,f,r,calibration,0.55,2,0,56,0.2414297750189407,-1.1448567343905092,1,False,0.897711000056006,False,square,square,0.2923438204884823,4.42601067178082,801.1079315923284,423.48723622365327,1035,[np.int64(595)],nan,nan,nan,nan,nan,,,,,,,,,,2,001,23,f,r,0.7305673713834197,False,,,,,
,,137,2,001,23,f,r,calibration,0.55,2,0,57,0.19750845711691875,-1.4019399122156422,1,False,0.8666878999210894,False,dot,dot,0.29623591908310787,3.3842265850301825,612.545011890463,332.58086218667756,344,[np.int64(1463)],nan,nan,nan,nan,nan,,,,,,,,,,2,001,23,f,r,0.7305673713834197,False,,,,,
,,138,2,001,23,f,r,calibration,0.55,2,0,58,0.19750845711691875,-1.4019399122156422,0,False,1.0030380999669433,False,square,dot,0.2600218320186255,3.772925940804111,675.3537434039358,290.8424222195093,1092,[np.int64(997)],nan,nan,nan,nan,nan,,,,,,,,,,2,001,23,f,r,0.7305673713834197,False,,,,,
,,139,2,001,23,f,r,calibration,0.55,2,0,59,0.2414297750189407,-1.1448567343905092,1,False,0.9664840999757871,False,dot,dot,0.2572441268456586,2.11830512865987,383.4132282874365,96.17454192524892,1410,[np.int64(737)],nan,nan,nan,nan,nan,,,,,,,,,,2,001,23,f,r,0.7305673713834197,False,,,,,
,,140,2,001,23,f,r,calibration,0.55,2,0,60,0.2414297750189407,-1.1448567343905092,1,False,1.4814320000587031,False,square,square,0.2545504964210113,4.148922478971486,750.954968693839,363.4557045591037,1083,[np.int64(416)],-1.3486117337258892,3.803410141083888,2.281922116748378,0.017432757809746485,0.018384263302716468,,,,,,,,,,2,001,23,f,r,0.7305673713834197,False,,,,,
,,141,2,001,23,f,r,calibration,0.55,2,0,61,0.2414297750189407,-1.1448567343905092,1,False,1.1721291999565437,False,dot,dot,0.25200242162750125,2.0044940977840455,362.8134316989122,46.88966566817653,1317,[np.int64(729)],nan,nan,nan,nan,nan,,,,,,,,,,2,001,23,f,r,0.7305673713834197,False,,,,,
,,142,2,001,23,f,r,calibration,0.55,2,0,62,0.19750845711691875,-1.4019399122156422,1,False,0.9881291999481618,False,dot,dot,0.25437606208801467,-0.13738145205745636,-24.8660428223996,476.39721882383026,563,[np.int64(1552)],nan,nan,nan,nan,nan,,,,,,,,,,2,001,23,f,r,0.7305673713834197,False,,,,,
,,143,2,001,23,f,r,calibration,0.55,2,0,63,0.19750845711691875,-1.4019399122156422,1,False,1.2169832000508904,False,dot,dot,0.256375024935832,1.5755603495113994,285.1764232615633,481.2029551352716,1226,[np.int64(319)],nan,nan,nan,nan,nan,,,,,,,,,,2,001,23,f,r,0.7305673713834197,False,,,,,
,,144,2,001,23,f,r,calibration,0.55,2,0,64,0.19750845711691875,-1.4019399122156422,1,False,1.0185103000840172,False,dot,dot,0.2579873193581101,3.566871908849031,645.6038155016746,291.8074284328955,1308,[np.int64(372)],nan,nan,nan,nan,nan,,,,,,,,,,2,001,23,f,r,0.7305673713834197,False,,,,,
,,145,2,001,23,f,r,calibration,0.55,2,0,65,0.19750845711691875,-1.4019399122156422,1,False,2.8214381999569014,False,square,square,0.2592179277085975,4.058731243765926,734.6303551216326,251.49248062883947,1133,[np.int64(406)],nan,nan,nan,nan,nan,,,,,,,,,,2,001,23,f,r,0.7305673713834197,False,,,,,
,,146,2,001,23,f,r,calibration,0.55,2,0,66,0.19750845711691875,-1.4019399122156422,1,False,0.9358612999785691,False,dot,dot,0.26008710366744686,4.504198753615112,815.2599744043354,334.64730816181174,803,[np.int64(983)],nan,nan,nan,nan,nan,,,,,,,,,,2,001,23,f,r,0.7305673713834197,False,,,,,
,,147,2,001,23,f,r,calibration,0.55,2,0,67,0.19750845711691875,-1.4019399122156422,1,False,1.0704170999815688,False,square,square,0.2606276968187817,1.2794506289976029,231.5805638485661,376.166939960751,708,[np.int64(1024)],nan,nan,nan,nan,nan,,,,,,,,,,2,001,23,f,r,0.7305673713834197,False,,,,,
,,148,2,001,23,f,r,calibration,0.55,2,0,68,0.19750845711691875,-1.4019399122156422,1,False,1.055651000002399,False,square,square,0.2608818045577338,3.060570497125191,553.9632599796596,400.40124568048634,584,[np.int64(1358)],nan,nan,nan,nan,nan,,,,,,,,,,2,001,23,f,r,0.7305673713834197,False,,,,,
,,149,2,001,23,f,r,calibration,0.55,2,0,69,0.15989317907384526,-1.659023090040775,0,False,1.068957999930717,False,dot,square,0.22550593308469577,2.039615097611728,369.1703326677228,386.63438537125046,174,[np.int64(1299)],nan,nan,nan,nan,nan,,,,,,,,,,2,001,23,f,r,0.7305673713834197,False,,,,,
,,150,2,001,23,f,r,calibration,0.55,2,0,70,0.19750845711691875,-1.4019399122156422,1,False,1.2827315999893472,False,square,square,0.22448858149600306,0.3207334101625088,58.05274723941409,450.75220714286434,429,[np.int64(134)],-1.5176837309895899,4.158314167328259,2.4215422778711577,0.015801604955190313,0.01745534161046223,,,,,,,,,,2,001,23,f,r,0.7305673713834197,False,,,,,
,,151,2,001,23,f,r,calibration,0.55,2,0,71,0.19750845711691875,-1.4019399122156422,1,False,1.1151329000713304,False,dot,dot,0.22338335311943186,0.5147965885421197,93.17818252612366,393.2406391696514,866,[np.int64(1003)],nan,nan,nan,nan,nan,,,,,,,,,,2,001,23,f,r,0.7305673713834197,False,,,,,
,,152,2,001,23,f,r,calibration,0.55,2,0,72,0.19750845711691875,-1.4019399122156422,1,False,0.9701949999434873,False,square,square,0.22223773588883874,2.181700425924525,394.8877770923391,385.5266855800819,424,[np.int64(1320)],nan,nan,nan,nan,nan,,,,,,,,,,2,001,23,f,r,0.7305673713834197,False,,,,,
,,153,2,001,23,f,r,calibration,0.55,2,0,73,0.19750845711691875,-1.4019399122156422,1,False,0.9513020000886172,False,dot,dot,0.22109408716073828,4.841905671832577,876.3849266016964,341.2063612403853,364,[np.int64(168)],nan,nan,nan,nan,nan,,,,,,,,,,2,001,23,f,r,0.7305673713834197,False,,,,,
,,154,2,001,23,f,r,calibration,0.55,2,0,74,0.19750845711691875,-1.4019399122156422,1,False,1.2033790999557823,False,square,square,0.21998811441844937,3.0426117273443345,550.7127226493245,144.9976826815983,938,[np.int64(1110)],nan,nan,nan,nan,nan,,,,,,,,,,2,001,23,f,r,0.7305673713834197,False,,,,,
,,155,2,001,23,f,r,calibration,0.55,2,0,75,0.15989317907384526,-1.659023090040775,0,False,1.5037563999649137,False,dot,square,0.19353667393605947,0.7715564986057548,139.65172624764162,533.9651109841028,1476,[np.int64(317)],nan,nan,nan,nan,nan,,,,,,,,,,2,001,23,f,r,0.7305673713834197,False,,,,,
,,156,2,001,23,f,r,test,,2,1,1,0.7305673713834197,,1,False,1.0141449000220746,False,img_A,img_A,,13.044156143901668,2334.9039497583985,219.93641806327054,1513,[np.int64(204)],,,,,,high,0.7305673713834197,5,pretzel_07s,sauerkraut_03s,13,23,33,41,2,001,23,f,r,0.7305673713834197,False,0.09458591314439023,True,"['high', 'low', 'high', 'low', 'high', 'low']",high,
,,157,2,001,23,f,r,test,,2,1,2,0.7305673713834197,,1,False,1.4267505999887362,False,img_B,img_B,,14.241139257349976,2577.646205580346,181.5315255404902,26,[np.int64(574)],,,,,,high,0.7305673713834197,5,hairbrush_12s,sequin_06s,13,23,33,41,2,001,23,f,r,0.7305673713834197,False,0.09458591314439023,True,"['high', 'low', 'high', 'low', 'high', 'low']",high,
,,158,2,001,23,f,r,test,,2,1,3,0.7305673713834197,,1,False,0.960032399976626,False,img_A,img_A,,16.410242157742424,2970.253830551379,245.7598923249284,799,[np.int64(1169)],,,,,,high,0.7305673713834197,5,sorbet_05s,swab_14s,13,23,33,41,2,001,23,f,r,0.7305673713834197,False,0.09458591314439023,True,"['high', 'low', 'high', 'low', 'high', 'low']",high,
,,159,2,001,23,f,r,test,,2,1,4,0.7305673713834197,,1,False,0.9616060999687761,False,img_B,img_B,,17.15388770128934,3104.8536739333704,207.55920847258298,898,[np.int64(749)],,,,,,high,0.7305673713834197,5,curling_iron_05s,hamburger_02s,13,23,33,41,2,001,23,f,r,0.7305673713834197,False,0.09458591314439023,True,"['high', 'low', 'high', 'low', 'high', 'low']",high,
,,160,2,001,23,f,r,test,,2,1,5,0.7305673713834197,,1,False,1.014882200048305,False,img_B,img_B,,15.503188556168492,2806.077128666497,224.05481498482402,676,[np.int64(1139)],,,,,,high,0.7305673713834197,5,pencil_sharpener_11s,spaghetti_07s,13,23,33,41,2,001,23,f,r,0.7305673713834197,False,0.09458591314439023,True,"['high', 'low', 'high', 'low', 'high', 'low']",high,
,,161,2,001,23,f,r,test,,2,1,6,0.7305673713834197,,1,False,0.9769065999425948,False,img_A,img_A,,12.142586971149793,2197.8082417781125,212.86222605645145,250,[np.int64(1568)],,,,,,high,0.7305673713834197,5,crutch_01b,hydrant_01s,13,23,33,41,2,001,23,f,r,0.7305673713834197,False,0.09458591314439023,True,"['high', 'low', 'high', 'low', 'high', 'low']",high,
,,162,2,001,23,f,r,test,,2,1,7,0.7305673713834197,,1,False,1.062056599999778,False,img_A,img_A,,12.599554662260125,2280.5193938690827,242.003358580883,1030,[np.int64(1551)],,,,,,high,0.7305673713834197,5,coin_03s,hot_chocolate_07s,13,23,33,41,2,001,23,f,r,0.7305673713834197,False,0.09458591314439023,True,"['high', 'low', 'high', 'low', 'high', 'low']",high,
,,163,2,001,23,f,r,test,,2,1,8,0.7305673713834197,,1,False,1.4798903999617323,False,img_A,img_A,,6.881159021688484,1245.4897829256156,146.99035494878743,200,[np.int64(352)],,,,,,high,0.7305673713834197,5,test_tube_12s,candy_cane_05s,13,23,33,41,2,001,23,f,r,0.7305673713834197,False,0.09458591314439023,True,"['high', 'low', 'high', 'low', 'high', 'low']",high,
,,164,2,001,23,f,r,test,,2,1,9,0.7305673713834197,,1,False,1.3307287000352517,False,img_A,img_A,,9.438400363040351,1708.3504657103035,214.26409000890212,1273,[np.int64(1080)],,,,,,high,0.7305673713834197,5,pocket_01b,quiche_07s,13,23,33,41,2,001,23,f,r,0.7305673713834197,False,0.09458591314439023,True,"['high', 'low', 'high', 'low', 'high', 'low']",high,
,,165,2,001,23,f,r,test,,2,1,10,0.7305673713834197,,1,False,1.0977967000799254,False,img_A,img_A,,11.395589980988207,2062.6017865588656,186.08807542481185,962,[np.int64(227)],,,,,,high,0.7305673713834197,4,boa_02s,waffle_06s,13,23,33,41,2,001,23,f,r,0.7305673713834197,False,0.09458591314439023,True,"['high', 'low', 'high', 'low', 'high', 'low']",high,
,,166,2,001,23,f,r,test,,2,1,11,0.7305673713834197,,1,False,2.7302593999775127,False,img_B,img_B,,3.2610406293453087,590.2483539115009,75.8730242472471,1040,[np.int64(890)],,,,,,high,0.7305673713834197,4,duster_07s,walrus_02n,13,23,33,41,2,001,23,f,r,0.7305673713834197,False,0.09458591314439023,True,"['high', 'low', 'high', 'low', 'high', 'low']",high,
,,167,2,001,23,f,r,test,,2,1,12,0.7305673713834197,,1,False,1.4984491999493912,False,img_B,img_B,,13.975790390676485,2529.618060712444,219.71651779832627,1069,[np.int64(145)],,,,,,high,0.7305673713834197,4,float_08s,pickle_13s,13,23,33,41,2,001,23,f,r,0.7305673713834197,False,0.09458591314439023,True,"['high', 'low', 'high', 'low', 'high', 'low']",high,
,,168,2,001,23,f,r,test,,2,1,13,0.7305673713834197,,1,False,1.363523600040935,False,img_B,img_B,,8.712424005267735,1576.9487449534602,160.77331145545645,634,[np.int64(797)],,,,,,high,0.7305673713834197,5,target_14s,bikini_09s,13,23,33,41,2,001,23,f,r,0.7305673713834197,False,0.09458591314439023,True,"['high', 'low', 'high', 'low', 'high', 'low']",high,
,,169,2,001,23,f,r,test,,2,1,14,0.7305673713834197,,1,False,1.0781632999423891,False,img_B,img_B,,14.972194537114774,2709.967211217774,254.44241395948077,1180,[np.int64(876)],,,,,,high,0.7305673713834197,4,pacifier_07s,iceskate_14s,13,23,33,41,2,001,23,f,r,0.7305673713834197,False,0.09458591314439023,True,"['high', 'low', 'high', 'low', 'high', 'low']",high,
,,170,2,001,23,f,r,test,,2,1,15,0.7305673713834197,,1,False,1.0456790999742225,False,img_B,img_B,,11.633849295308808,2105.726722450894,172.0060856399209,1247,[np.int64(411)],,,,,,high,0.7305673713834197,3,suit_06s,soap_06s,13,23,33,41,2,001,23,f,r,0.7305673713834197,False,0.09458591314439023,True,"['high', 'low', 'high', 'low', 'high', 'low']",high,
,,171,2,001,23,f,r,test,,2,1,16,0.7305673713834197,,1,False,1.0288724000565708,False,img_A,img_A,,12.488304577810062,2260.3831285836213,205.00672988383806,831,[np.int64(1033)],,,,,,high,0.7305673713834197,2,giraffe_07s,garlic_05s,13,23,33,41,2,001,23,f,r,0.7305673713834197,False,0.09458591314439023,True,"['high', 'low', 'high', 'low', 'high', 'low']",high,
,,172,2,001,23,f,r,test,,2,1,17,0.7305673713834197,,1,False,1.0437404999975115,False,img_A,img_A,,11.25329443696123,2036.8462930899827,219.47340285589937,924,[np.int64(1184)],,,,,,high,0.7305673713834197,3,tack_01b,puppy_06s,13,23,33,41,2,001,23,f,r,0.7305673713834197,False,0.09458591314439023,True,"['high', 'low', 'high', 'low', 'high', 'low']",high,
,,173,2,001,23,f,r,test,,2,1,18,0.7305673713834197,,1,False,1.1120988000184298,False,img_B,img_B,,9.477134722929355,1715.3613848502132,174.43001296238333,108,[np.int64(1342)],,,,,,high,0.7305673713834197,3,trap_03s,nightshirt_01b,13,23,33,41,2,001,23,f,r,0.7305673713834197,False,0.09458591314439023,True,"['high', 'low', 'high', 'low', 'high', 'low']",high,
,,174,2,001,23,f,r,test,,2,1,19,0.7305673713834197,,1,False,0.9806920000119135,False,img_A,img_A,,12.240728337913273,2215.5718291623025,219.62399816879721,697,[np.int64(177)],,,,,,high,0.7305673713834197,3,washing_machine_05s,paintbrush_12s,13,23,33,41,2,001,23,f,r,0.7305673713834197,False,0.09458591314439023,True,"['high', 'low', 'high', 'low', 'high', 'low']",high,
,,175,2,001,23,f,r,test,,2,1,20,0.7305673713834197,,1,False,1.246024899999611,False,img_B,img_B,,15.49117304894932,2803.9023218598268,249.08541862613922,1001,[np.int64(1545)],,,,,,high,0.7305673713834197,3,zebra_11s,sewage_09s,13,23,33,41,2,001,23,f,r,0.7305673713834197,False,0.09458591314439023,True,"['high', 'low', 'high', 'low', 'high', 'low']",high,
,,176,2,001,23,f,r,test,,2,2,1,0.09458591314439023,,1,False,2.215420800028369,False,img_B,img_B,,2.0539713990141473,371.7688232215607,297.52622188278,141,[np.int64(838)],,,,,,low,0.09458591314439023,1,calf1_12s,chick_06s,11,21,31,41,2,001,23,f,r,0.7305673713834197,False,0.09458591314439023,True,"['high', 'low', 'high', 'low', 'high', 'low']",high,
,,177,2,001,23,f,r,test,,2,2,2,0.09458591314439023,,1,False,1.1099421000108123,False,img_A,img_A,,2.593400852775932,469.4055543524437,312.7140521977163,1480,[np.int64(1351)],,,,,,low,0.09458591314439023,1,raccoon_06n,handbrake_07s,11,21,31,41,2,001,23,f,r,0.7305673713834197,False,0.09458591314439023,True,"['high', 'low', 'high', 'low', 'high', 'low']",high,
,,178,2,001,23,f,r,test,,2,2,3,0.09458591314439023,,1,False,1.1277145000640303,False,img_B,img_B,,1.8926366148315907,342.5672272845179,396.34207045591944,759,[np.int64(163)],,,,,,low,0.09458591314439023,1,toilet_14n,grater_03s,11,21,31,41,2,001,23,f,r,0.7305673713834197,False,0.09458591314439023,True,"['high', 'low', 'high', 'low', 'high', 'low']",high,
,,179,2,001,23,f,r,test,,2,2,4,0.09458591314439023,,0,False,0.9774173999903724,False,img_A,img_B,,-0.4257408075271782,-77.05908616241925,537.7355655664669,680,[np.int64(846)],,,,,,low,0.09458591314439023,1,avocado_13s,sponge_14s,11,21,31,42,2,001,23,f,r,0.7305673713834197,False,0.09458591314439023,True,"['high', 'low', 'high', 'low', 'high', 'low']",high,
,,180,2,001,23,f,r,test,,2,2,5,0.09458591314439023,,0,False,1.4115282000275329,False,img_B,img_A,,-0.8954948367202056,-162.0845654463572,414.39433359511565,1232,[np.int64(1036)],,,,,,low,0.09458591314439023,1,butter_14s,mashed_potato_05s,11,21,31,42,2,001,23,f,r,0.7305673713834197,False,0.09458591314439023,True,"['high', 'low', 'high', 'low', 'high', 'low']",high,
,,181,2,001,23,f,r,test,,2,2,6,0.09458591314439023,,1,False,0.913680600002408,False,img_A,img_A,,2.6006220680760377,470.7125943217628,389.41414420171714,974,[np.int64(1376)],,,,,,low,0.09458591314439023,1,cashew_02s,sweeper_02s,11,21,31,41,2,001,23,f,r,0.7305673713834197,False,0.09458591314439023,True,"['high', 'low', 'high', 'low', 'high', 'low']",high,
,,182,2,001,23,f,r,test,,2,2,7,0.09458591314439023,,1,False,1.1472651999210939,False,img_A,img_A,,-0.49146616321065917,-88.95537554112931,291.5278538595794,544,[np.int64(832)],,,,,,low,0.09458591314439023,1,clasp_09s,vest_09s,11,21,31,41,2,001,23,f,r,0.7305673713834197,False,0.09458591314439023,True,"['high', 'low', 'high', 'low', 'high', 'low']",high,
,,183,2,001,23,f,r,test,,2,2,8,0.09458591314439023,,1,False,0.9469849000452086,False,img_A,img_A,,2.574051120943479,465.90325289076975,307.5143177563867,964,[np.int64(1382)],,,,,,low,0.09458591314439023,1,dragonfly_09s,costume_04s,11,21,31,41,2,001,23,f,r,0.7305673713834197,False,0.09458591314439023,True,"['high', 'low', 'high', 'low', 'high', 'low']",high,
,,184,2,001,23,f,r,test,,2,2,9,0.09458591314439023,,1,False,1.0478825001046062,False,img_B,img_B,,1.4393596236329593,260.52409187756564,382.75120236537794,169,[np.int64(671)],,,,,,low,0.09458591314439023,1,shears_04s,yarn_14s,11,21,31,41,2,001,23,f,r,0.7305673713834197,False,0.09458591314439023,True,"['high', 'low', 'high', 'low', 'high', 'low']",high,
,,185,2,001,23,f,r,test,,2,2,10,0.09458591314439023,,1,False,2.9125504000112414,False,img_A,img_A,,0.9665567423946483,174.94677037343135,225.03707419226848,889,[np.int64(1582)],,,,,,low,0.09458591314439023,1,step_stool_11s,mushroom_08n,11,21,31,41,2,001,23,f,r,0.7305673713834197,False,0.09458591314439023,True,"['high', 'low', 'high', 'low', 'high', 'low']",high,
,,186,2,001,23,f,r,test,,2,2,11,0.09458591314439023,,1,False,1.0273716000374407,False,img_B,img_B,,0.2990847791272854,54.13434502203866,325.9012872495063,314,[np.int64(1347)],,,,,,low,0.09458591314439023,2,salami_08s,egg_roll_07n,11,21,31,41,2,001,23,f,r,0.7305673713834197,False,0.09458591314439023,True,"['high', 'low', 'high', 'low', 'high', 'low']",high,
,,187,2,001,23,f,r,test,,2,2,12,0.09458591314439023,,1,False,1.3651645999634638,False,img_A,img_A,,0.8437356647556425,152.7161553207713,436.2427450065758,1174,[np.int64(27)],,,,,,low,0.09458591314439023,1,hot_tub_07s,coffee_bean_12s,11,21,31,41,2,001,23,f,r,0.7305673713834197,False,0.09458591314439023,True,"['high', 'low', 'high', 'low', 'high', 'low']",high,
,,188,2,001,23,f,r,test,,2,2,13,0.09458591314439023,,1,False,1.1937672999920323,False,img_A,img_A,,0.7660452965351199,138.6541986728567,390.64457314707704,1027,[np.int64(111)],,,,,,low,0.09458591314439023,2,green_beans_12s,headset_03s,11,21,31,41,2,001,23,f,r,0.7305673713834197,False,0.09458591314439023,True,"['high', 'low', 'high', 'low', 'high', 'low']",high,
,,189,2,001,23,f,r,test,,2,2,14,0.09458591314439023,,0,False,0.9124092999845743,False,img_B,img_A,,1.152601221798284,208.6208211454894,365.81000932852834,906,[np.int64(152)],,,,,,low,0.09458591314439023,2,keyboard_07s,skewer_01b,11,21,31,42,2,001,23,f,r,0.7305673713834197,False,0.09458591314439023,True,"['high', 'low', 'high', 'low', 'high', 'low']",high,
,,190,2,001,23,f,r,test,,2,2,15,0.09458591314439023,,1,False,0.8961441999999806,False,img_B,img_B,,0.7814910835727061,141.4498861266598,401.8018490271753,820,[np.int64(1095)],,,,,,low,0.09458591314439023,3,locker_08s,football_01b,11,21,31,41,2,001,23,f,r,0.7305673713834197,False,0.09458591314439023,True,"['high', 'low', 'high', 'low', 'high', 'low']",high,
,,191,2,001,23,f,r,test,,2,2,16,0.09458591314439023,,1,False,0.9813886999618262,False,img_B,img_B,,0.5308411320533182,96.08224490165058,240.24545680375505,1297,[np.int64(210)],,,,,,low,0.09458591314439023,2,dalmatian_10s,creme_brulee_10s,11,21,31,41,2,001,23,f,r,0.7305673713834197,False,0.09458591314439023,True,"['high', 'low', 'high', 'low', 'high', 'low']",high,
,,192,2,001,23,f,r,test,,2,2,17,0.09458591314439023,,1,False,0.8957249999511987,False,img_B,img_B,,1.8752844997810523,339.42649446037046,405.1063663168634,930,[np.int64(532)],,,,,,low,0.09458591314439023,1,light_switch_17s,wallet_05s,11,21,31,41,2,001,23,f,r,0.7305673713834197,False,0.09458591314439023,True,"['high', 'low', 'high', 'low', 'high', 'low']",high,
,,193,2,001,23,f,r,test,,2,2,18,0.09458591314439023,,1,False,2.414261500001885,False,img_B,img_B,,0.09994435408843179,18.089928090006154,413.1966353652099,1029,[np.int64(1310)],,,,,,low,0.09458591314439023,1,dishrag_10s,praying_mantis_20s,11,21,31,41,2,001,23,f,r,0.7305673713834197,False,0.09458591314439023,True,"['high', 'low', 'high', 'low', 'high', 'low']",high,
,,194,2,001,23,f,r,test,,2,2,19,0.09458591314439023,,0,False,0.9127304999856278,False,img_B,img_A,,1.100663522542094,199.22009758011902,446.12712776636687,1238,[np.int64(78)],,,,,,low,0.09458591314439023,2,pea_14s,container_04s,11,21,31,42,2,001,23,f,r,0.7305673713834197,False,0.09458591314439023,True,"['high', 'low', 'high', 'low', 'high', 'low']",high,
,,195,2,001,23,f,r,test,,2,2,20,0.09458591314439023,,1,False,1.4425062000518665,False,img_A,img_A,,-0.5301400560731978,-95.9553501492488,219.1277413558964,225,[np.int64(1079)],,,,,,low,0.09458591314439023,1,cream_cheese_07s,shaving_cream_05s,11,21,31,41,2,001,23,f,r,0.7305673713834197,False,0.09458591314439023,True,"['high', 'low', 'high', 'low', 'high', 'low']",high,
,,196,2,001,23,f,r,test,,2,3,1,0.7305673713834197,,1,False,1.1826391000067815,False,img_B,img_B,,15.930623972974772,2883.4429391084336,206.782931172913,1267,[np.int64(758)],,,,,,high,0.7305673713834197,6,bowling_ball_01b,pinball_02s,13,23,33,41,2,001,23,f,r,0.7305673713834197,False,0.09458591314439023,True,"['high', 'low', 'high', 'low', 'high', 'low']",high,
,,197,2,001,23,f,r,test,,2,3,2,0.7305673713834197,,1,False,0.9078487999504432,False,img_B,img_B,,15.640185753122635,2830.873621315197,193.57021059595115,322,[np.int64(474)],,,,,,high,0.7305673713834197,6,pizza_03s,banana_06s,13,23,33,41,2,001,23,f,r,0.7305673713834197,False,0.09458591314439023,True,"['high', 'low', 'high', 'low', 'high', 'low']",high,
,,198,2,001,23,f,r,test,,2,3,3,0.7305673713834197,,1,False,0.910857200040482,False,img_A,img_A,,16.688481260727833,3020.615108191738,213.5556462383808,1571,[np.int64(1191)],,,,,,high,0.7305673713834197,5,sushi_08s,olive_04s,13,23,33,41,2,001,23,f,r,0.7305673713834197,False,0.09458591314439023,True,"['high', 'low', 'high', 'low', 'high', 'low']",high,
,,199,2,001,23,f,r,test,,2,3,4,0.7305673713834197,,1,False,0.9411288000410423,False,img_B,img_B,,14.531140527050642,2630.1364353961662,184.4760863700713,203,[np.int64(186)],,,,,,high,0.7305673713834197,5,undershirt_12s,wetsuit_03s,13,23,33,41,2,001,23,f,r,0.7305673713834197,False,0.09458591314439023,True,"['high', 'low', 'high', 'low', 'high', 'low']",high,
,,200,2,001,23,f,r,test,,2,3,5,0.7305673713834197,,1,False,1.0131767999846488,False,img_A,img_A,,12.804584722817768,2317.629834830016,201.6749284426158,35,[np.int64(1257)],,,,,,high,0.7305673713834197,6,jam_13s,lighter_08s,13,23,33,41,2,001,23,f,r,0.7305673713834197,False,0.09458591314439023,True,"['high', 'low', 'high', 'low', 'high', 'low']",high,
,,201,2,001,23,f,r,test,,2,3,6,0.7305673713834197,,1,False,1.0942696999991313,False,img_B,img_B,,12.623584457507768,2284.868786808906,211.9514259811087,1242,[np.int64(1111)],,,,,,high,0.7305673713834197,5,boxer_shorts_03s,bedpan_13s,13,23,33,41,2,001,23,f,r,0.7305673713834197,False,0.09458591314439023,True,"['high', 'low', 'high', 'low', 'high', 'low']",high,
,,202,2,001,23,f,r,test,,2,3,7,0.7305673713834197,,1,False,1.1300719000864774,False,img_A,img_A,,16.880068444807126,3055.29238851009,217.92355371189035,125,[np.int64(886)],,,,,,high,0.7305673713834197,5,meatball_16s,taco_05s,13,23,33,41,2,001,23,f,r,0.7305673713834197,False,0.09458591314439023,True,"['high', 'low', 'high', 'low', 'high', 'low']",high,
,,203,2,001,23,f,r,test,,2,3,8,0.7305673713834197,,1,False,0.9478244000347331,False,img_A,img_A,,14.547409029457357,2633.0810343317817,204.6022027112069,1123,[np.int64(578)],,,,,,high,0.7305673713834197,6,cheesecake_11s,cigarette_09s,13,23,33,41,2,001,23,f,r,0.7305673713834197,False,0.09458591314439023,True,"['high', 'low', 'high', 'low', 'high', 'low']",high,
,,204,2,001,23,f,r,test,,2,3,9,0.7305673713834197,,1,False,0.9296412001131102,False,img_B,img_B,,13.654780612675719,2471.515290894305,214.1305027965374,493,[np.int64(947)],,,,,,high,0.7305673713834197,5,chinchilla_13n,quesadilla_23s,13,23,33,41,2,001,23,f,r,0.7305673713834197,False,0.09458591314439023,True,"['high', 'low', 'high', 'low', 'high', 'low']",high,
,,205,2,001,23,f,r,test,,2,3,10,0.7305673713834197,,1,False,1.0619946999941021,False,img_A,img_A,,12.851738171226266,2326.164608991954,196.1202578383235,710,[np.int64(1487)],,,,,,high,0.7305673713834197,6,blower_08s,chopsticks_04s,13,23,33,41,2,001,23,f,r,0.7305673713834197,False,0.09458591314439023,True,"['high', 'low', 'high', 'low', 'high', 'low']",high,
,,206,2,001,23,f,r,test,,2,3,11,0.7305673713834197,,1,False,1.9304534000111744,False,img_A,img_A,,11.513217418881093,2083.892352817478,182.0417731665398,770,[np.int64(522)],,,,,,high,0.7305673713834197,5,dough_19s,bean_04s,13,23,33,41,2,001,23,f,r,0.7305673713834197,False,0.09458591314439023,True,"['high', 'low', 'high', 'low', 'high', 'low']",high,
,,207,2,001,23,f,r,test,,2,3,12,0.7305673713834197,,1,False,1.178858199971728,False,img_A,img_A,,10.49936402251634,1900.3848880754576,170.34771994676726,842,[np.int64(1057)],,,,,,high,0.7305673713834197,5,football_helmet_05s,pants_03s,13,23,33,41,2,001,23,f,r,0.7305673713834197,False,0.09458591314439023,True,"['high', 'low', 'high', 'low', 'high', 'low']",high,
,,208,2,001,23,f,r,test,,2,3,13,0.7305673713834197,,1,False,1.0971969000529498,False,img_B,img_B,,11.29361356843244,2044.1440558862716,229.91476154168848,711,[np.int64(1276)],,,,,,high,0.7305673713834197,6,grapefruit_09s,ginger_03s,13,23,33,41,2,001,23,f,r,0.7305673713834197,False,0.09458591314439023,True,"['high', 'low', 'high', 'low', 'high', 'low']",high,
,,209,2,001,23,f,r,test,,2,3,14,0.7305673713834197,,1,False,1.430186599958688,False,img_A,img_A,,10.620034253890628,1922.2261999542038,181.8646994436572,1562,[np.int64(806)],,,,,,high,0.7305673713834197,6,boxing_gloves_08s,kangaroo_11s,13,23,33,41,2,001,23,f,r,0.7305673713834197,False,0.09458591314439023,True,"['high', 'low', 'high', 'low', 'high', 'low']",high,
,,210,2,001,23,f,r,test,,2,3,15,0.7305673713834197,,1,False,1.3479214999824762,False,img_A,img_A,,11.908953988916954,2155.520671993969,177.47971268382676,1319,[np.int64(356)],,,,,,high,0.7305673713834197,7,elephant_07n,crouton_12s,13,23,33,41,2,001,23,f,r,0.7305673713834197,False,0.09458591314439023,True,"['high', 'low', 'high', 'low', 'high', 'low']",high,
,,211,2,001,23,f,r,test,,2,3,16,0.7305673713834197,,1,False,1.178759100032039,False,img_A,img_A,,11.306257035069383,2046.4325233475581,223.56099594486597,1112,[np.int64(1098)],,,,,,high,0.7305673713834197,5,otter_12s,glove_13s,13,23,33,41,2,001,23,f,r,0.7305673713834197,False,0.09458591314439023,True,"['high', 'low', 'high', 'low', 'high', 'low']",high,
,,212,2,001,23,f,r,test,,2,3,17,0.7305673713834197,,1,False,1.1790724999736995,False,img_A,img_A,,14.601452203939642,2642.862848913075,221.5537769367874,1569,[np.int64(1193)],,,,,,high,0.7305673713834197,6,ready_meal_11s,hobbyhorse_04s,13,23,33,41,2,001,23,f,r,0.7305673713834197,False,0.09458591314439023,True,"['high', 'low', 'high', 'low', 'high', 'low']",high,
,,213,2,001,23,f,r,test,,2,3,18,0.7305673713834197,,1,False,1.1624808999476954,False,img_A,img_A,,11.141129145473819,2016.544375330761,213.60122776674265,724,[np.int64(986)],,,,,,high,0.7305673713834197,5,asparagus_07s,worm_06s,13,23,33,41,2,001,23,f,r,0.7305673713834197,False,0.09458591314439023,True,"['high', 'low', 'high', 'low', 'high', 'low']",high,
,,214,2,001,23,f,r,test,,2,3,19,0.7305673713834197,,1,False,1.0608884999528527,False,img_B,img_B,,15.71540988007442,2844.48918829347,247.22968793069418,700,[np.int64(706)],,,,,,high,0.7305673713834197,6,pantsuit_07s,hamster_07s,13,23,33,41,2,001,23,f,r,0.7305673713834197,False,0.09458591314439023,True,"['high', 'low', 'high', 'low', 'high', 'low']",high,
,,215,2,001,23,f,r,test,,2,3,20,0.7305673713834197,,1,False,1.18038020003587,False,img_A,img_A,,9.021069575276027,1632.8135931249608,154.96988078344413,166,[np.int64(864)],,,,,,high,0.7305673713834197,7,ice_cream_08s,figurine_11s,13,23,33,41,2,001,23,f,r,0.7305673713834197,False,0.09458591314439023,True,"['high', 'low', 'high', 'low', 'high', 'low']",high,
,,216,2,001,23,f,r,test,,2,4,1,0.09458591314439023,,1,False,1.894662500009872,False,img_B,img_B,,-1.3666029215826048,-247.35512880645146,203.55652943025336,71,[np.int64(207)],,,,,,low,0.09458591314439023,1,domino_02s,electric_chair_09s,11,21,31,41,2,001,23,f,r,0.7305673713834197,False,0.09458591314439023,True,"['high', 'low', 'high', 'low', 'high', 'low']",high,
,,217,2,001,23,f,r,test,,2,4,2,0.09458591314439023,,1,False,1.8272234000032768,False,img_B,img_B,,1.3301680985325168,240.76042583438553,307.50713798094756,1134,[np.int64(253)],,,,,,low,0.09458591314439023,1,turf_04s,rooster_07s,11,21,31,41,2,001,23,f,r,0.7305673713834197,False,0.09458591314439023,True,"['high', 'low', 'high', 'low', 'high', 'low']",high,
,,218,2,001,23,f,r,test,,2,4,3,0.09458591314439023,,1,False,1.0955093000084162,False,img_A,img_A,,0.9624226145331477,174.19849323049974,293.27312577613674,714,[np.int64(1263)],,,,,,low,0.09458591314439023,2,pug_19s,taffy_02s,11,21,31,41,2,001,23,f,r,0.7305673713834197,False,0.09458591314439023,True,"['high', 'low', 'high', 'low', 'high', 'low']",high,
,,219,2,001,23,f,r,test,,2,4,4,0.09458591314439023,,0,False,1.5661146000493318,False,img_B,img_A,,-0.47071603090319925,-85.19960159347906,419.1009053751067,418,[np.int64(1524)],,,,,,low,0.09458591314439023,1,sleeping_bag_12s,cardinal_05s,11,21,31,42,2,001,23,f,r,0.7305673713834197,False,0.09458591314439023,True,"['high', 'low', 'high', 'low', 'high', 'low']",high,
,,220,2,001,23,f,r,test,,2,4,5,0.09458591314439023,,0,False,1.046992399962619,False,img_A,img_B,,1.0037384959778175,181.67666777198497,332.62380303538055,1314,[np.int64(524)],,,,,,low,0.09458591314439023,1,lollipop_06n,checkers_07s,11,21,31,42,2,001,23,f,r,0.7305673713834197,False,0.09458591314439023,True,"['high', 'low', 'high', 'low', 'high', 'low']",high,
,,221,2,001,23,f,r,test,,2,4,6,0.09458591314439023,,0,False,1.095361299929209,False,img_A,img_B,,-0.4390298809049447,-79.464408443795,479.88261620789143,673,[np.int64(678)],,,,,,low,0.09458591314439023,2,tube_top_10s,nutcracker_03s,11,21,31,42,2,001,23,f,r,0.7305673713834197,False,0.09458591314439023,True,"['high', 'low', 'high', 'low', 'high', 'low']",high,
,,222,2,001,23,f,r,test,,2,4,7,0.09458591314439023,,1,False,0.9292445000028238,False,img_B,img_B,,0.30720522164898356,55.60414511846602,230.19664886596303,1373,[np.int64(1177)],,,,,,low,0.09458591314439023,2,canoe_06s,pet_food_04s,11,21,31,41,2,001,23,f,r,0.7305673713834197,False,0.09458591314439023,True,"['high', 'low', 'high', 'low', 'high', 'low']",high,
,,223,2,001,23,f,r,test,,2,4,8,0.09458591314439023,,0,False,1.6787237001117319,False,img_B,img_A,,-0.48167048714971233,-87.18235817409793,291.992551890516,357,[np.int64(1279)],,,,,,low,0.09458591314439023,1,tomato_sauce_07s,apron_13s,11,21,31,42,2,001,23,f,r,0.7305673713834197,False,0.09458591314439023,True,"['high', 'low', 'high', 'low', 'high', 'low']",high,
,,224,2,001,23,f,r,test,,2,4,9,0.09458591314439023,,0,False,1.1308664999669418,False,img_B,img_A,,0.5923350881348655,107.21265095241066,110.39111750470154,22,[np.int64(604)],,,,,,low,0.09458591314439023,2,footprint_11s,gyro_07s,11,21,31,42,2,001,23,f,r,0.7305673713834197,False,0.09458591314439023,True,"['high', 'low', 'high', 'low', 'high', 'low']",high,
,,225,2,001,23,f,r,test,,2,4,10,0.09458591314439023,,1,False,0.9477129000006244,False,img_A,img_A,,0.34942552966169144,63.24602086876615,164.63869022992867,917,[np.int64(1182)],,,,,,low,0.09458591314439023,2,kazoo_08s,limousine_01s,11,21,31,41,2,001,23,f,r,0.7305673713834197,False,0.09458591314439023,True,"['high', 'low', 'high', 'low', 'high', 'low']",high,
,,226,2,001,23,f,r,test,,2,4,11,0.09458591314439023,,1,False,1.1281978000188246,False,img_B,img_B,,1.8856500389995108,341.30265705891145,418.77985557095286,566,[np.int64(287)],,,,,,low,0.09458591314439023,1,squeegee_10s,toast_13s,11,21,31,41,2,001,23,f,r,0.7305673713834197,False,0.09458591314439023,True,"['high', 'low', 'high', 'low', 'high', 'low']",high,
,,227,2,001,23,f,r,test,,2,4,12,0.09458591314439023,,1,False,1.261088699917309,False,img_B,img_B,,0.8726872598368663,157.9563940304728,119.74847431927455,1491,[np.int64(698)],,,,,,low,0.09458591314439023,1,cauliflower_02s,cookie_cutter_02s,11,21,31,41,2,001,23,f,r,0.7305673713834197,False,0.09458591314439023,True,"['high', 'low', 'high', 'low', 'high', 'low']",high,
,,228,2,001,23,f,r,test,,2,4,13,0.09458591314439023,,0,False,1.1469673999818042,False,img_A,img_B,,0.39162233969633764,70.88364348503711,408.6715206590213,573,[np.int64(252)],,,,,,low,0.09458591314439023,1,ham_10s,saltshaker_07s,11,21,31,42,2,001,23,f,r,0.7305673713834197,False,0.09458591314439023,True,"['high', 'low', 'high', 'low', 'high', 'low']",high,
,,229,2,001,23,f,r,test,,2,4,14,0.09458591314439023,,1,False,0.878365800017491,False,img_A,img_A,,2.215492471449495,401.00413733235854,378.02205527470426,691,[np.int64(1150)],,,,,,low,0.09458591314439023,2,vacuum_11s,dreidel_10s,11,21,31,41,2,001,23,f,r,0.7305673713834197,False,0.09458591314439023,True,"['high', 'low', 'high', 'low', 'high', 'low']",high,
,,230,2,001,23,f,r,test,,2,4,15,0.09458591314439023,,1,False,0.8930422000121325,False,img_B,img_B,,0.7092270423124915,128.37009465856096,213.25708320660632,355,[np.int64(955)],,,,,,low,0.09458591314439023,3,shower_cap_12s,eggshell_12s,11,21,31,41,2,001,23,f,r,0.7305673713834197,False,0.09458591314439023,True,"['high', 'low', 'high', 'low', 'high', 'low']",high,
,,231,2,001,23,f,r,test,,2,4,16,0.09458591314439023,,1,False,0.9306873000459746,False,img_B,img_B,,2.2340416795486124,404.3615439982988,248.7871793540371,95,[np.int64(916)],,,,,,low,0.09458591314439023,2,pill_06s,waffle_iron_14s,11,21,31,41,2,001,23,f,r,0.7305673713834197,False,0.09458591314439023,True,"['high', 'low', 'high', 'low', 'high', 'low']",high,
,,232,2,001,23,f,r,test,,2,4,17,0.09458591314439023,,1,False,1.0452104000141844,False,img_A,img_A,,1.1441127012518009,207.08439892657594,350.47164511240067,1020,[np.int64(703)],,,,,,low,0.09458591314439023,2,peanut_butter_07s,frisbee_04s,11,21,31,41,2,001,23,f,r,0.7305673713834197,False,0.09458591314439023,True,"['high', 'low', 'high', 'low', 'high', 'low']",high,
,,233,2,001,23,f,r,test,,2,4,18,0.09458591314439023,,0,False,0.962532400037162,False,img_B,img_A,,0.9665765469166907,174.95035499192102,442.64832266379204,639,[np.int64(739)],,,,,,low,0.09458591314439023,1,wrench_03s,donut_02s,11,21,31,42,2,001,23,f,r,0.7305673713834197,False,0.09458591314439023,True,"['high', 'low', 'high', 'low', 'high', 'low']",high,
,,234,2,001,23,f,r,test,,2,4,19,0.09458591314439023,,0,False,1.0463863000040874,False,img_A,img_B,,-0.8760740393531656,-158.56940112292298,363.1914239961763,907,[np.int64(560)],,,,,,low,0.09458591314439023,1,batter_04s,breadstick_14s,11,21,31,42,2,001,23,f,r,0.7305673713834197,False,0.09458591314439023,True,"['high', 'low', 'high', 'low', 'high', 'low']",high,
,,235,2,001,23,f,r,test,,2,4,20,0.09458591314439023,,0,False,0.9616725000087172,False,img_B,img_A,,0.36157303556595133,65.44471943743719,472.68689996737487,62,[np.int64(635)],,,,,,low,0.09458591314439023,1,coaster_05s,pallet_10s,11,21,31,42,2,001,23,f,r,0.7305673713834197,False,0.09458591314439023,True,"['high', 'low', 'high', 'low', 'high', 'low']",high,
,,236,2,001,23,f,r,test,,2,5,1,0.7305673713834197,,1,False,1.06444129999727,False,img_A,img_A,,14.571159942372931,2637.3799495695007,205.21951930256918,1473,[np.int64(1341)],,,,,,high,0.7305673713834197,5,pita_02s,mouthpiece_01s,13,23,33,41,2,001,23,f,r,0.7305673713834197,False,0.09458591314439023,True,"['high', 'low', 'high', 'low', 'high', 'low']",high,
,,237,2,001,23,f,r,test,,2,5,2,0.7305673713834197,,1,False,0.9159715999849141,False,img_B,img_B,,15.785034970410736,2857.091329644343,210.88752982646344,276,[np.int64(10)],,,,,,high,0.7305673713834197,6,bib_13n,juicer1_06s,13,23,33,41,2,001,23,f,r,0.7305673713834197,False,0.09458591314439023,True,"['high', 'low', 'high', 'low', 'high', 'low']",high,
,,238,2,001,23,f,r,test,,2,5,3,0.7305673713834197,,1,False,1.7442162999650463,False,img_A,img_A,,12.828755898082752,2322.0048175529782,227.6741319456517,596,[np.int64(139)],,,,,,high,0.7305673713834197,5,rattle_12s,swordfish_08s,13,23,33,41,2,001,23,f,r,0.7305673713834197,False,0.09458591314439023,True,"['high', 'low', 'high', 'low', 'high', 'low']",high,
,,239,2,001,23,f,r,test,,2,5,4,0.7305673713834197,,1,False,1.1298182000173256,False,img_B,img_B,,14.234481226383716,2576.4411019754525,193.67264993723379,878,[np.int64(613)],,,,,,high,0.7305673713834197,6,punching_bag_12s,cross_14s,13,23,33,41,2,001,23,f,r,0.7305673713834197,False,0.09458591314439023,True,"['high', 'low', 'high', 'low', 'high', 'low']",high,
,,240,2,001,23,f,r,test,,2,5,5,0.7305673713834197,,1,False,1.0313677999656647,False,img_B,img_B,,10.94341273880589,1980.757705723866,221.96375641171238,79,[np.int64(568)],,,,,,high,0.7305673713834197,6,dumpster_02s,pajamas_13s,13,23,33,41,2,001,23,f,r,0.7305673713834197,False,0.09458591314439023,True,"['high', 'low', 'high', 'low', 'high', 'low']",high,
,,241,2,001,23,f,r,test,,2,5,6,0.7305673713834197,,1,False,1.0778221000218764,False,img_B,img_B,,9.665143254218469,1749.390929013543,193.09927834050146,1108,[np.int64(675)],,,,,,high,0.7305673713834197,5,mulberry_02s,cookie_11s,13,23,33,41,2,001,23,f,r,0.7305673713834197,False,0.09458591314439023,True,"['high', 'low', 'high', 'low', 'high', 'low']",high,
,,242,2,001,23,f,r,test,,2,5,7,0.7305673713834197,,1,False,0.9455648000584915,False,img_A,img_A,,9.167424600296664,1659.3038526536964,177.66784424581417,722,[np.int64(1222)],,,,,,high,0.7305673713834197,4,staple_01b,badge_07s,13,23,33,41,2,001,23,f,r,0.7305673713834197,False,0.09458591314439023,True,"['high', 'low', 'high', 'low', 'high', 'low']",high,
,,243,2,001,23,f,r,test,,2,5,8,0.7305673713834197,,1,False,0.9798722999403253,False,img_A,img_A,,12.275509246998773,2221.867173706778,209.253068916523,291,[np.int64(1457)],,,,,,high,0.7305673713834197,5,lion_22s,corset_08s,13,23,33,41,2,001,23,f,r,0.7305673713834197,False,0.09458591314439023,True,"['high', 'low', 'high', 'low', 'high', 'low']",high,
,,244,2,001,23,f,r,test,,2,5,9,0.7305673713834197,,1,False,1.179544399958104,False,img_B,img_B,,12.647102343788907,2289.125524225792,223.15923924032887,230,[np.int64(476)],,,,,,high,0.7305673713834197,5,barrette_01b,gearshift_03n,13,23,33,41,2,001,23,f,r,0.7305673713834197,False,0.09458591314439023,True,"['high', 'low', 'high', 'low', 'high', 'low']",high,
,,245,2,001,23,f,r,test,,2,5,10,0.7305673713834197,,1,False,0.9456080000381917,False,img_A,img_A,,12.489779093139544,2260.6500158582576,134.36174001102725,1406,[np.int64(1485)],,,,,,high,0.7305673713834197,4,fingerprint_12s,air_mattress_03s,13,23,33,41,2,001,23,f,r,0.7305673713834197,False,0.09458591314439023,True,"['high', 'low', 'high', 'low', 'high', 'low']",high,
,,246,2,001,23,f,r,test,,2,5,11,0.7305673713834197,,1,False,0.9462364000501111,False,img_A,img_A,,7.97409408100701,1443.3110286622689,132.56717989182994,690,[np.int64(1484)],,,,,,high,0.7305673713834197,5,lanyard_13s,paint_10s,13,23,33,41,2,001,23,f,r,0.7305673713834197,False,0.09458591314439023,True,"['high', 'low', 'high', 'low', 'high', 'low']",high,
,,247,2,001,23,f,r,test,,2,5,12,0.7305673713834197,,1,False,1.1298443999839947,False,img_B,img_B,,13.524499872869566,2447.9344769893914,225.85531298998248,179,[np.int64(1479)],,,,,,high,0.7305673713834197,5,boot_08s,robot_01b,13,23,33,41,2,001,23,f,r,0.7305673713834197,False,0.09458591314439023,True,"['high', 'low', 'high', 'low', 'high', 'low']",high,
,,248,2,001,23,f,r,test,,2,5,13,0.7305673713834197,,1,False,1.0797044000355527,False,img_B,img_B,,8.28034343299672,1498.7421613724064,166.2806959067941,1179,[np.int64(119)],,,,,,high,0.7305673713834197,6,dip_05s,pepper2_07s,13,23,33,41,2,001,23,f,r,0.7305673713834197,False,0.09458591314439023,True,"['high', 'low', 'high', 'low', 'high', 'low']",high,
,,249,2,001,23,f,r,test,,2,5,14,0.7305673713834197,,1,False,0.9973891000263393,False,img_B,img_B,,10.154896022353132,1838.0361800459168,151.41300248275832,94,[np.int64(21)],,,,,,high,0.7305673713834197,5,cheese_05n,bunkbed_06s,13,23,33,41,2,001,23,f,r,0.7305673713834197,False,0.09458591314439023,True,"['high', 'low', 'high', 'low', 'high', 'low']",high,
,,250,2,001,23,f,r,test,,2,5,15,0.7305673713834197,,1,False,1.045792199904099,False,img_A,img_A,,8.00477989611234,1448.8651611963337,158.88084937482338,31,[np.int64(611)],,,,,,high,0.7305673713834197,5,cornhusk_12s,beanbag_16s,13,23,33,41,2,001,23,f,r,0.7305673713834197,False,0.09458591314439023,True,"['high', 'low', 'high', 'low', 'high', 'low']",high,
,,251,2,001,23,f,r,test,,2,5,16,0.7305673713834197,,1,False,0.8977902000769973,False,img_A,img_A,,8.292454359220294,1500.9342390188733,140.38270102001832,521,[np.int64(1002)],,,,,,high,0.7305673713834197,6,snorkel_09s,tattoo_12s,13,23,33,41,2,001,23,f,r,0.7305673713834197,False,0.09458591314439023,True,"['high', 'low', 'high', 'low', 'high', 'low']",high,
,,252,2,001,23,f,r,test,,2,5,17,0.7305673713834197,,1,False,1.2458656000671908,False,img_A,img_A,,9.196502430434933,1664.5669399087228,173.9270334977087,183,[np.int64(1118)],,,,,,high,0.7305673713834197,4,clipper2_05s,toad_06s,13,23,33,41,2,001,23,f,r,0.7305673713834197,False,0.09458591314439023,True,"['high', 'low', 'high', 'low', 'high', 'low']",high,
,,253,2,001,23,f,r,test,,2,5,18,0.7305673713834197,,1,False,1.9994230000302196,False,img_A,img_A,,8.619321364533711,1560.0971669806017,140.91417212188765,1337,[np.int64(1105)],,,,,,high,0.7305673713834197,4,goat_02n,cloak_12s,13,23,33,41,2,001,23,f,r,0.7305673713834197,False,0.09458591314439023,True,"['high', 'low', 'high', 'low', 'high', 'low']",high,
,,254,2,001,23,f,r,test,,2,5,19,0.7305673713834197,,1,False,1.730071400059387,False,img_A,img_A,,9.03116272112485,1634.640452523598,165.01310416228284,1300,[np.int64(1099)],,,,,,high,0.7305673713834197,5,bracelet1_05s,toothbrush_01s,13,23,33,41,2,001,23,f,r,0.7305673713834197,False,0.09458591314439023,True,"['high', 'low', 'high', 'low', 'high', 'low']",high,
,,255,2,001,23,f,r,test,,2,5,20,0.7305673713834197,,1,False,0.943422400043346,False,img_A,img_A,,7.489924104791413,1355.6762629672457,152.59948483553887,892,[np.int64(75)],,,,,,high,0.7305673713834197,6,spider_web_14s,parfait_20s,13,23,33,41,2,001,23,f,r,0.7305673713834197,False,0.09458591314439023,True,"['high', 'low', 'high', 'low', 'high', 'low']",high,
,,256,2,001,23,f,r,test,,2,6,1,0.09458591314439023,,0,False,0.999837200040929,False,img_A,img_B,,-2.2298596604387786,-403.60459853941893,184.61508245007704,1101,[np.int64(1005)],,,,,,low,0.09458591314439023,2,spacesuit_06s,sink_01b,11,21,31,42,2,001,23,f,r,0.7305673713834197,False,0.09458591314439023,True,"['high', 'low', 'high', 'low', 'high', 'low']",high,
,,257,2,001,23,f,r,test,,2,6,2,0.09458591314439023,,0,False,0.9926404999569058,False,img_A,img_B,,1.1386622782191753,206.09787235767075,599.0933796613524,1195,[np.int64(536)],,,,,,low,0.09458591314439023,2,faucet_09s,blindfold_15s,11,21,31,42,2,001,23,f,r,0.7305673713834197,False,0.09458591314439023,True,"['high', 'low', 'high', 'low', 'high', 'low']",high,
,,258,2,001,23,f,r,test,,2,6,3,0.09458591314439023,,1,False,1.5456057999981567,False,img_A,img_A,,-0.8191814026429479,-148.27183387837357,560.9869837431203,1412,[np.int64(1368)],,,,,,low,0.09458591314439023,2,hairdryer_06s,caviar_01b,11,21,31,41,2,001,23,f,r,0.7305673713834197,False,0.09458591314439023,True,"['high', 'low', 'high', 'low', 'high', 'low']",high,
,,259,2,001,23,f,r,test,,2,6,4,0.09458591314439023,,1,False,2.462630399968475,False,img_A,img_A,,2.4222380207374945,438.4250817534865,123.06815006151359,57,[np.int64(1166)],,,,,,low,0.09458591314439023,1,sandbox_10s,macaroni_11s,11,21,31,41,2,001,23,f,r,0.7305673713834197,False,0.09458591314439023,True,"['high', 'low', 'high', 'low', 'high', 'low']",high,
,,260,2,001,23,f,r,test,,2,6,5,0.09458591314439023,,0,False,1.4307187999365851,False,img_B,img_A,,-0.27781929712833864,-50.2852927802293,475.5562370209198,148,[np.int64(1117)],,,,,,low,0.09458591314439023,1,celery_04s,eggplant_05n,11,21,31,42,2,001,23,f,r,0.7305673713834197,False,0.09458591314439023,True,"['high', 'low', 'high', 'low', 'high', 'low']",high,
,,261,2,001,23,f,r,test,,2,6,6,0.09458591314439023,,0,False,1.0449617999838665,False,img_A,img_B,,0.4054145341783622,73.38003068628356,378.14098017154515,6,[np.int64(1432)],,,,,,low,0.09458591314439023,1,filing_cabinet_07s,drumstick_12s,11,21,31,42,2,001,23,f,r,0.7305673713834197,False,0.09458591314439023,True,"['high', 'low', 'high', 'low', 'high', 'low']",high,
,,262,2,001,23,f,r,test,,2,6,7,0.09458591314439023,,0,False,1.1832914999686182,False,img_A,img_B,,1.100146763563569,199.12656420500602,437.8418069777279,1535,[np.int64(1019)],,,,,,low,0.09458591314439023,1,leggings_12s,pumpkin_16s,11,21,31,42,2,001,23,f,r,0.7305673713834197,False,0.09458591314439023,True,"['high', 'low', 'high', 'low', 'high', 'low']",high,
,,263,2,001,23,f,r,test,,2,6,8,0.09458591314439023,,0,False,1.494058300042525,False,img_A,img_B,,1.8722165017924213,338.87118682442826,483.59667203944934,362,[np.int64(484)],,,,,,low,0.09458591314439023,1,saffron_14s,kimono_02s,11,21,31,42,2,001,23,f,r,0.7305673713834197,False,0.09458591314439023,True,"['high', 'low', 'high', 'low', 'high', 'low']",high,
,,264,2,001,23,f,r,test,,2,6,9,0.09458591314439023,,0,False,3.134143600007519,False,img_B,img_A,,1.5169217218020676,274.56283164617423,556.3040087339402,1196,[np.int64(383)],,,,,,low,0.09458591314439023,2,ketchup_15s,flipper_12s,11,21,31,42,2,001,23,f,r,0.7305673713834197,False,0.09458591314439023,True,"['high', 'low', 'high', 'low', 'high', 'low']",high,
,,265,2,001,23,f,r,test,,2,6,10,0.09458591314439023,,1,False,0.8452483000000939,False,img_A,img_A,,1.7255445476767217,312.3235631294866,300.1749119041443,100,[np.int64(993)],,,,,,low,0.09458591314439023,2,bubble_wrap_11s,dolphin_09n,11,21,31,41,2,001,23,f,r,0.7305673713834197,False,0.09458591314439023,True,"['high', 'low', 'high', 'low', 'high', 'low']",high,
,,266,2,001,23,f,r,test,,2,6,11,0.09458591314439023,,1,False,1.3627892000367865,False,img_B,img_B,,1.0516900981670267,190.35590776823184,360.33914921955125,1010,[np.int64(1021)],,,,,,low,0.09458591314439023,1,polo_shirt_04s,snack_12s,11,21,31,41,2,001,23,f,r,0.7305673713834197,False,0.09458591314439023,True,"['high', 'low', 'high', 'low', 'high', 'low']",high,
,,267,2,001,23,f,r,test,,2,6,12,0.09458591314439023,,1,False,1.7797906000632793,False,img_A,img_A,,0.618682645696557,111.9815588710768,302.5572448316082,243,[np.int64(1013)],,,,,,low,0.09458591314439023,2,cat_01b,wooden_leg_02s,11,21,31,41,2,001,23,f,r,0.7305673713834197,False,0.09458591314439023,True,"['high', 'low', 'high', 'low', 'high', 'low']",high,
,,268,2,001,23,f,r,test,,2,6,13,0.09458591314439023,,1,False,1.2269027000293136,False,img_A,img_A,,0.10538095064943466,19.073952067547673,299.003941633571,1384,[np.int64(581)],,,,,,low,0.09458591314439023,1,diamond_14s,jumpsuit_07s,11,21,31,41,2,001,23,f,r,0.7305673713834197,False,0.09458591314439023,True,"['high', 'low', 'high', 'low', 'high', 'low']",high,
,,269,2,001,23,f,r,test,,2,6,14,0.09458591314439023,,1,False,1.0952737999614328,False,img_B,img_B,,0.6225168709539145,112.67555364265853,337.3634203013848,450,[np.int64(231)],,,,,,low,0.09458591314439023,3,bowtie_14s,peppermint_10s,11,21,31,41,2,001,23,f,r,0.7305673713834197,False,0.09458591314439023,True,"['high', 'low', 'high', 'low', 'high', 'low']",high,
,,270,2,001,23,f,r,test,,2,6,15,0.09458591314439023,,1,False,1.1148723999504,False,img_B,img_B,,0.541377532170453,97.989333322852,236.65263789871622,1465,[np.int64(720)],,,,,,low,0.09458591314439023,2,peg_09s,lab_coat_04s,11,21,31,41,2,001,23,f,r,0.7305673713834197,False,0.09458591314439023,True,"['high', 'low', 'high', 'low', 'high', 'low']",high,
,,271,2,001,23,f,r,test,,2,6,16,0.09458591314439023,,1,False,1.0101879999274388,False,img_B,img_B,,-1.5907177082018413,-287.91990518453326,279.4955703335065,764,[np.int64(857)],,,,,,low,0.09458591314439023,2,urinal_10s,headband_09s,11,21,31,41,2,001,23,f,r,0.7305673713834197,False,0.09458591314439023,True,"['high', 'low', 'high', 'low', 'high', 'low']",high,
,,272,2,001,23,f,r,test,,2,6,17,0.09458591314439023,,1,False,0.9810220000799745,False,img_B,img_B,,0.682246838481173,123.48667776509231,294.2893836794188,621,[np.int64(715)],,,,,,low,0.09458591314439023,2,shark_07s,memory_stick_05s,11,21,31,41,2,001,23,f,r,0.7305673713834197,False,0.09458591314439023,True,"['high', 'low', 'high', 'low', 'high', 'low']",high,
,,273,2,001,23,f,r,test,,2,6,18,0.09458591314439023,,1,False,0.9447959999088198,False,img_A,img_A,,2.8677280966208487,519.0587854883736,385.34832987865605,241,[np.int64(1268)],,,,,,low,0.09458591314439023,2,doorknocker_26s,koala_10s,11,21,31,41,2,001,23,f,r,0.7305673713834197,False,0.09458591314439023,True,"['high', 'low', 'high', 'low', 'high', 'low']",high,
,,274,2,001,23,f,r,test,,2,6,19,0.09458591314439023,,0,False,3.178998199990019,False,img_A,img_B,,0.7466450270399376,135.1427498942287,186.7021287350773,407,[np.int64(1587)],,,,,,low,0.09458591314439023,1,brush_04s,sloth_03s,11,21,31,42,2,001,23,f,r,0.7305673713834197,False,0.09458591314439023,True,"['high', 'low', 'high', 'low', 'high', 'low']",high,
,,275,2,001,23,f,r,test,,2,6,20,0.09458591314439023,,1,False,0.9787402999354526,False,img_B,img_B,,1.049843756190738,190.0217198705236,559.2060413174016,5,[np.int64(946)],,,,,,low,0.09458591314439023,2,mitten_04s,jelly_bean_13n,11,21,31,41,2,001,23,f,r,0.7305673713834197,False,0.09458591314439023,True,"['high', 'low', 'high', 'low', 'high', 'low']",high,
