thisRow.t,notes,overall_trial_num,participant,session,age,gender,handedness,phase,calib_target,n_shapes,block_num,trial_in_block,prop_used,stimulus_logit,detection_accuracy,is_timeout,rt_choice,early_response,true_controlled,response_controlled,quest_alpha_sd,mean_evidence,sum_evidence,var_evidence,target_snippet_id,distractor_snippet_ids,quest_alpha_mean,quest_beta_mean,quest_beta_sd,quest_lambda_mean,quest_lambda_sd,control_condition,threshold_75,agency_rating,img_A_name,img_B_name,trigger_stim_onset,trigger_motion_start,trigger_resp_onset,trigger_resp_val,participant,session,age,gender,handedness,quest_prop_low,quest_low_converged,quest_prop_high,quest_high_converged,miniblock_order,starts_with,
,,1,3,001,31,m,r,calibration,0.55,2,0,1,0.347354013008391,-0.6306903787402434,1,False,0.9174126998987049,False,square,square,0.9585022178944526,4.179182766004295,748.0737151147687,246.11496440673346,988,[np.int64(968)],-0.6105307855798056,3.2449087058269095,2.055422663760532,0.0257181206205907,0.02148187862845949,,,,,,,,,,3,001,31,m,r,,,,,,,
,,2,3,001,31,m,r,calibration,0.55,2,0,2,0.347354013008391,-0.6306903787402434,0,False,1.4978129998780787,False,square,dot,0.8159747285924219,7.323516448846755,1325.5564772412627,173.64064544741478,1484,[np.int64(924)],-0.05001588787199827,3.2319921310993145,2.0487151302990343,0.026606840000665752,0.021650718437986983,,,,,,,,,,3,001,31,m,r,,,,,,,
,,3,3,001,31,m,r,calibration,0.55,2,0,3,0.47090191089840744,-0.11652402308997703,0,False,1.0609295000322163,False,square,dot,0.6935525476814474,6.094028517121832,1103.0191615990516,186.45218463994652,429,[np.int64(629)],0.3722450056771243,3.2366601935202266,2.0483203891301978,0.027428518158235125,0.021783420862527256,,,,,,,,,,3,001,31,m,r,,,,,,,
,,4,3,001,31,m,r,calibration,0.55,2,0,4,0.5981210736084265,0.3976423325602886,1,False,2.487753399880603,False,square,square,0.6781110502246894,2.8693258634476853,519.347981284031,27.69700613324095,1536,[np.int64(758)],0.24769833187338677,3.243746057219266,2.0521468999012367,0.027099945023273286,0.02173055816702293,,,,,,,,,,3,001,31,m,r,,,,,,,
,,5,3,001,31,m,r,calibration,0.55,2,0,5,0.5981210736084265,0.3976423325602886,0,False,1.3841830999590456,False,square,dot,0.613597463239484,14.734213719304098,2666.8926831940416,216.30180004434186,201,[np.int64(979)],0.628428685562418,3.168109681079932,2.0148800598166985,0.02826781468764369,0.021890415930950074,,,,,,,,,,3,001,31,m,r,,,,,,,
,,6,3,001,31,m,r,calibration,0.55,2,0,6,0.6580745541515514,0.654725510385422,1,False,0.9313094997778535,False,dot,dot,0.6007945081972881,6.13933644201827,1111.219896005307,128.38323755633755,1235,[np.int64(886)],0.5245554392194002,3.175669345342914,2.019236701564263,0.027935522575787866,0.021846306358227537,,,,,,,,,,3,001,31,m,r,,,,,,,
,,7,3,001,31,m,r,calibration,0.55,2,0,7,0.6580745541515514,0.654725510385422,0,False,1.2153823000844568,False,dot,square,0.5521320056740753,10.724643386417469,1941.1604529415617,167.98527935069723,303,[np.int64(642)],0.8388365591024383,3.1022536689770837,1.9802536690585812,0.029086047781549246,0.021972298063908234,,,,,,,,,,3,001,31,m,r,,,,,,,
,,8,3,001,31,m,r,calibration,0.55,2,0,8,0.7133701336716126,0.9118086882105548,1,False,0.7996304999105632,False,dot,dot,0.540006059995996,10.681278701387004,1933.3114449510476,210.22511093440167,997,[np.int64(1566)],0.7517525369333434,3.116349955948394,1.9880363161344838,0.028741862072685455,0.02193591291072033,,,,,,,,,,3,001,31,m,r,,,,,,,
,,9,3,001,31,m,r,calibration,0.55,2,0,9,0.7133701336716126,0.9118086882105548,1,False,0.8982815998606384,False,dot,dot,0.5236723561590606,11.454259723006427,2073.221009864163,217.1150569178885,168,[np.int64(1515)],0.6714577716022978,3.143967718580651,2.002374538855502,0.02838140091680319,0.021893527686256728,,,,,,,,,,3,001,31,m,r,,,,,,,
,,10,3,001,31,m,r,calibration,0.55,2,0,10,0.7133701336716126,0.9118086882105548,1,False,1.2812838000245392,False,square,square,0.5051069980861315,18.934446694738558,3427.134851747679,199.87520891973173,1159,[np.int64(864)],0.5989781561045987,3.1835427676005326,2.022132602438797,0.028007048362144227,0.02184486792449426,,,,,,,,,,3,001,31,m,r,,,,,,,
,,11,3,001,31,m,r,calibration,0.55,2,0,11,0.7133701336716126,0.9118086882105548,1,False,1.3956770000513643,False,square,square,0.4860901415115253,16.719296248781667,3026.192621029482,208.71017117785144,836,[np.int64(148)],nan,nan,nan,nan,nan,,,,,,,,,,3,001,31,m,r,,,,,,,
,,12,3,001,31,m,r,calibration,0.55,2,0,12,0.6580745541515514,0.654725510385422,1,False,0.6535794998053461,False,dot,dot,0.47403526563563914,19.82785134078689,3588.8410926824267,157.55256636258892,913,[np.int64(422)],nan,nan,nan,nan,nan,,,,,,,,,,3,001,31,m,r,,,,,,,
,,13,3,001,31,m,r,calibration,0.55,2,0,13,0.6580745541515514,0.654725510385422,1,False,0.6355700001586229,False,dot,dot,0.46123487643918687,18.950595298873292,3430.057749096066,227.42799145287367,72,[np.int64(1110)],nan,nan,nan,nan,nan,,,,,,,,,,3,001,31,m,r,,,,,,,
,,14,3,001,31,m,r,calibration,0.55,2,0,14,0.6580745541515514,0.654725510385422,1,False,0.9381319000385702,False,dot,dot,0.44856682144357646,16.00274515987323,2896.4968739370543,204.96057155819094,555,[np.int64(919)],nan,nan,nan,nan,nan,,,,,,,,,,3,001,31,m,r,,,,,,,
,,15,3,001,31,m,r,calibration,0.55,2,0,15,0.5981210736084265,0.3976423325602886,1,False,0.6708841000217944,False,square,square,0.44406929130599826,16.547875395268836,2995.165446543659,207.37343293252744,964,[np.int64(969)],nan,nan,nan,nan,nan,,,,,,,,,,3,001,31,m,r,,,,,,,
,,16,3,001,31,m,r,calibration,0.55,2,0,16,0.5981210736084265,0.3976423325602886,1,False,0.6180267001036555,False,square,square,0.4384592523107413,11.446214595784133,2071.764841836928,165.49375771110482,875,[np.int64(1031)],nan,nan,nan,nan,nan,,,,,,,,,,3,001,31,m,r,,,,,,,
,,17,3,001,31,m,r,calibration,0.55,2,0,17,0.5981210736084265,0.3976423325602886,1,False,0.8023626999929547,False,square,square,0.4321639616179474,15.144997850028101,2741.244610855086,187.5486434735677,1345,[np.int64(1338)],nan,nan,nan,nan,nan,,,,,,,,,,3,001,31,m,r,,,,,,,
,,18,3,001,31,m,r,calibration,0.55,2,0,18,0.5350820483873121,0.14055915473515587,1,False,0.7711818001698703,False,square,square,0.434311007083972,16.022007676390942,2899.9833894267604,233.7054830104141,1171,[np.int64(1038)],nan,nan,nan,nan,nan,,,,,,,,,,3,001,31,m,r,,,,,,,
,,19,3,001,31,m,r,calibration,0.55,2,0,19,0.5350820483873121,0.14055915473515587,1,False,0.6684999000281096,False,square,square,0.4346142798446184,12.792280405027272,2315.402753309936,224.03542569281623,791,[np.int64(1576)],nan,nan,nan,nan,nan,,,,,,,,,,3,001,31,m,r,,,,,,,
,,20,3,001,31,m,r,calibration,0.55,2,0,20,0.5350820483873121,0.14055915473515587,1,False,0.5353082998190075,False,square,square,0.43327976349705893,15.151739285624352,2742.4648106980076,211.59502990949542,921,[np.int64(554)],-0.019203671514459786,3.4191103908845695,2.1310544492648518,0.024575173399648573,0.02117725816794382,,,,,,,,,,3,001,31,m,r,,,,,,,
,,21,3,001,31,m,r,calibration,0.55,2,0,21,0.47090191089840744,-0.11652402308997703,1,False,1.0383216999471188,False,dot,dot,0.4405266586537035,9.264768940783286,1676.9231782817747,221.77986954919334,1182,[np.int64(1006)],nan,nan,nan,nan,nan,,,,,,,,,,3,001,31,m,r,,,,,,,
,,22,3,001,31,m,r,calibration,0.55,2,0,22,0.47090191089840744,-0.11652402308997703,1,False,0.9373212000355124,False,square,square,0.44542259953589475,8.746218274048715,1583.0655076028174,372.37347259853,1071,[np.int64(1548)],nan,nan,nan,nan,nan,,,,,,,,,,3,001,31,m,r,,,,,,,
,,23,3,001,31,m,r,calibration,0.55,2,0,23,0.47090191089840744,-0.11652402308997703,1,False,0.9188294999767095,False,dot,dot,0.44796448829295965,10.563376885427788,1911.9712162624296,169.74921826380316,1174,[np.int64(531)],nan,nan,nan,nan,nan,,,,,,,,,,3,001,31,m,r,,,,,,,
,,24,3,001,31,m,r,calibration,0.55,2,0,24,0.47090191089840744,-0.11652402308997703,1,False,0.5201191001106054,False,dot,dot,0.4483840065420782,8.569555811356215,1551.089601855475,266.1017277722452,182,[np.int64(526)],nan,nan,nan,nan,nan,,,,,,,,,,3,001,31,m,r,,,,,,,
,,25,3,001,31,m,r,calibration,0.55,2,0,25,0.40766968306220214,-0.37360720091511007,1,False,1.3675561000127345,False,dot,dot,0.4574054486883648,6.6607432561297015,1205.594529359476,329.78702487478944,98,[np.int64(1051)],nan,nan,nan,nan,nan,,,,,,,,,,3,001,31,m,r,,,,,,,
,,26,3,001,31,m,r,calibration,0.55,2,0,26,0.40766968306220214,-0.37360720091511007,0,False,0.7359900998417288,False,square,dot,0.3840358792037734,7.224716032183493,1307.6736018252122,455.1748761527562,804,[np.int64(1489)],nan,nan,nan,nan,nan,,,,,,,,,,3,001,31,m,r,,,,,,,
,,27,3,001,31,m,r,calibration,0.55,2,0,27,0.47090191089840744,-0.11652402308997703,1,False,0.6010276998858899,False,dot,dot,0.3810170737744448,10.0371668189143,1816.7271942234886,205.7647104250017,1095,[np.int64(1267)],nan,nan,nan,nan,nan,,,,,,,,,,3,001,31,m,r,,,,,,,
,,28,3,001,31,m,r,calibration,0.55,2,0,28,0.47090191089840744,-0.11652402308997703,1,False,1.3815995999611914,False,dot,dot,0.377096025274476,10.313481148345332,1866.7400878505052,254.39551678053974,1414,[np.int64(1180)],nan,nan,nan,nan,nan,,,,,,,,,,3,001,31,m,r,,,,,,,
,,29,3,001,31,m,r,calibration,0.55,2,0,29,0.47090191089840744,-0.11652402308997703,1,False,0.6706147000659257,False,dot,dot,0.37264448574317927,7.178122474004179,1299.2401677947564,344.81897930425265,674,[np.int64(333)],nan,nan,nan,nan,nan,,,,,,,,,,3,001,31,m,r,,,,,,,
,,30,3,001,31,m,r,calibration,0.55,2,0,30,0.47090191089840744,-0.11652402308997703,1,False,0.5364532999228686,False,square,square,0.3680181562938684,11.28383694288809,2042.3744866627444,281.5853130181523,1280,[np.int64(1162)],-0.3516601734187474,3.5157932240816527,2.174678326565549,0.022589051680800262,0.020596416695895705,,,,,,,,,,3,001,31,m,r,,,,,,,
,,31,3,001,31,m,r,calibration,0.55,2,0,31,0.40766968306220214,-0.37360720091511007,1,False,0.5688457998912781,False,dot,dot,0.37108069087687034,4.674668844634716,846.1150608788837,321.45597191227887,369,[np.int64(310)],nan,nan,nan,nan,nan,,,,,,,,,,3,001,31,m,r,,,,,,,
,,32,3,001,31,m,r,calibration,0.55,2,0,32,0.40766968306220214,-0.37360720091511007,1,False,0.5875837998464704,False,dot,dot,0.3732814053265832,6.581773153292495,1191.3009407459417,328.02651393204184,1184,[np.int64(586)],nan,nan,nan,nan,nan,,,,,,,,,,3,001,31,m,r,,,,,,,
,,33,3,001,31,m,r,calibration,0.55,2,0,33,0.40766968306220214,-0.37360720091511007,0,False,0.9192666001617908,False,square,dot,0.32531690516101713,5.758719091353735,1042.328155535026,402.59734935030383,27,[np.int64(570)],nan,nan,nan,nan,nan,,,,,,,,,,3,001,31,m,r,,,,,,,
,,34,3,001,31,m,r,calibration,0.55,2,0,34,0.47090191089840744,-0.11652402308997703,1,False,0.6459301998838782,False,square,square,0.3192978734711193,8.422162635604321,1524.4114370443822,133.91549454702556,1279,[np.int64(641)],nan,nan,nan,nan,nan,,,,,,,,,,3,001,31,m,r,,,,,,,
,,35,3,001,31,m,r,calibration,0.55,2,0,35,0.47090191089840744,-0.11652402308997703,1,False,0.6652106000110507,False,dot,dot,0.31375664456622543,7.638753027974178,1382.6142980633263,81.74594099763165,1538,[np.int64(1288)],nan,nan,nan,nan,nan,,,,,,,,,,3,001,31,m,r,,,,,,,
,,36,3,001,31,m,r,calibration,0.55,2,0,36,0.40766968306220214,-0.37360720091511007,1,False,0.7369918001350015,False,dot,dot,0.3145898718330152,6.379836577687234,1154.7504205613893,259.33111348824207,203,[np.int64(1592)],nan,nan,nan,nan,nan,,,,,,,,,,3,001,31,m,r,,,,,,,
,,37,3,001,31,m,r,calibration,0.55,2,0,37,0.40766968306220214,-0.37360720091511007,1,False,0.5872786999680102,False,square,square,0.31518791856269873,8.659456827455568,1567.3616857694578,423.62903490648455,363,[np.int64(1360)],nan,nan,nan,nan,nan,,,,,,,,,,3,001,31,m,r,,,,,,,
,,38,3,001,31,m,r,calibration,0.55,2,0,38,0.40766968306220214,-0.37360720091511007,0,False,1.1528827999718487,False,square,dot,0.28314775843429996,4.253873494411701,769.9511024885179,256.6750085417264,619,[np.int64(78)],nan,nan,nan,nan,nan,,,,,,,,,,3,001,31,m,r,,,,,,,
,,39,3,001,31,m,r,calibration,0.55,2,0,39,0.47090191089840744,-0.11652402308997703,1,False,0.7685678000561893,False,square,square,0.27728756306688956,5.542670662013591,1003.2233898244599,307.87799795950144,1573,[np.int64(967)],nan,nan,nan,nan,nan,,,,,,,,,,3,001,31,m,r,,,,,,,
,,40,3,001,31,m,r,calibration,0.55,2,0,40,0.47090191089840744,-0.11652402308997703,1,False,0.6000425000675023,False,square,square,0.2721119631454966,7.034373582582905,1273.2216184475058,123.9283083672542,418,[np.int64(66)],-0.3799275621324889,3.6502566817873427,2.23716790238832,0.02197378115936325,0.020369186719089365,,,,,,,,,,3,001,31,m,r,,,,,,,
,,41,3,001,31,m,r,calibration,0.55,2,0,41,0.40766968306220214,-0.37360720091511007,1,False,0.570082199992612,False,square,square,0.2720917159442676,5.5573375322769705,1005.8780933421317,339.5187631276038,180,[np.int64(188)],nan,nan,nan,nan,nan,,,,,,,,,,3,001,31,m,r,,,,,,,
,,42,3,001,31,m,r,calibration,0.55,2,0,42,0.40766968306220214,-0.37360720091511007,1,False,0.4859819000121206,False,dot,dot,0.2720681085607427,8.40497468154265,1521.3004173592194,287.0904499813974,120,[np.int64(542)],nan,nan,nan,nan,nan,,,,,,,,,,3,001,31,m,r,,,,,,,
,,43,3,001,31,m,r,calibration,0.55,2,0,43,0.40766968306220214,-0.37360720091511007,1,False,0.6711607999168336,False,square,square,0.2720516946630312,5.497510629546972,995.049423948002,168.15147877705658,230,[np.int64(365)],nan,nan,nan,nan,nan,,,,,,,,,,3,001,31,m,r,,,,,,,
,,44,3,001,31,m,r,calibration,0.55,2,0,44,0.40766968306220214,-0.37360720091511007,1,False,0.5703255999833345,False,square,square,0.27205329647968085,2.8115488239071387,508.8903371271921,107.34795447334105,524,[np.int64(759)],nan,nan,nan,nan,nan,,,,,,,,,,3,001,31,m,r,,,,,,,
,,45,3,001,31,m,r,calibration,0.55,2,0,45,0.40766968306220214,-0.37360720091511007,1,False,0.5705053000710905,False,square,square,0.2720837007351321,7.013921189940435,1269.5197353792187,160.61922950785907,1314,[np.int64(1562)],nan,nan,nan,nan,nan,,,,,,,,,,3,001,31,m,r,,,,,,,
,,46,3,001,31,m,r,calibration,0.55,2,0,46,0.40766968306220214,-0.37360720091511007,1,False,0.6208335000555962,False,dot,dot,0.2721532216169461,2.0301507991800882,367.45729465159593,339.6901955297865,651,[np.int64(386)],nan,nan,nan,nan,nan,,,,,,,,,,3,001,31,m,r,,,,,,,
,,47,3,001,31,m,r,calibration,0.55,2,0,47,0.347354013008391,-0.6306903787402434,0,False,1.2475542000029236,False,dot,square,0.23587384083204516,5.959839777271412,1078.7309996861256,122.17935947340146,1377,[np.int64(1358)],nan,nan,nan,nan,nan,,,,,,,,,,3,001,31,m,r,,,,,,,
,,48,3,001,31,m,r,calibration,0.55,2,0,48,0.40766968306220214,-0.37360720091511007,0,False,0.8827812001109123,False,square,dot,0.22222260064260313,8.43264553229235,1526.3088413449154,232.6432460766914,1584,[np.int64(899)],nan,nan,nan,nan,nan,,,,,,,,,,3,001,31,m,r,,,,,,,
,,49,3,001,31,m,r,calibration,0.55,2,0,49,0.40766968306220214,-0.37360720091511007,1,False,0.4807040998712182,False,dot,dot,0.22001077374527467,7.559531036083081,1368.2751175310377,306.0707859450784,938,[np.int64(491)],nan,nan,nan,nan,nan,,,,,,,,,,3,001,31,m,r,,,,,,,
,,50,3,001,31,m,r,calibration,0.55,2,0,50,0.40766968306220214,-0.37360720091511007,1,False,0.6989867000374943,False,dot,dot,0.21795010571166037,5.989407880030351,1084.0828262854934,534.6375530183911,1387,[np.int64(1055)],-0.43625497344185915,3.7923895744844462,2.2970705602839305,0.021262280857655094,0.020094349628837233,,,,,,,,,,3,001,31,m,r,,,,,,,
,,51,3,001,31,m,r,calibration,0.55,2,0,51,0.40766968306220214,-0.37360720091511007,1,False,1.0869863000698388,False,dot,dot,0.2160536076499302,7.4518371218786985,1348.7825190600445,297.4338848515552,364,[np.int64(879)],nan,nan,nan,nan,nan,,,,,,,,,,3,001,31,m,r,,,,,,,
,,52,3,001,31,m,r,calibration,0.55,2,0,52,0.40766968306220214,-0.37360720091511007,1,False,0.5874018999747932,False,dot,dot,0.21432946883068943,7.557451978099327,1367.8988080359782,335.94936358856967,1084,[np.int64(615)],nan,nan,nan,nan,nan,,,,,,,,,,3,001,31,m,r,,,,,,,
,,53,3,001,31,m,r,calibration,0.55,2,0,53,0.40766968306220214,-0.37360720091511007,1,False,0.7190376999787986,False,dot,dot,0.21278167426919858,7.827819774435823,1416.835379172884,344.1254159892123,1076,[np.int64(13)],nan,nan,nan,nan,nan,,,,,,,,,,3,001,31,m,r,,,,,,,
,,54,3,001,31,m,r,calibration,0.55,2,0,54,0.40766968306220214,-0.37360720091511007,1,False,0.6704392000101507,False,dot,dot,0.21141060874220663,6.826059121011018,1235.5167009029942,493.2965208890152,926,[np.int64(1456)],nan,nan,nan,nan,nan,,,,,,,,,,3,001,31,m,r,,,,,,,
,,55,3,001,31,m,r,calibration,0.55,2,0,55,0.40766968306220214,-0.37360720091511007,0,False,0.8037040000781417,False,dot,square,0.19983599084176729,5.601071556072145,1013.7939516490582,366.59232514809645,1531,[np.int64(552)],nan,nan,nan,nan,nan,,,,,,,,,,3,001,31,m,r,,,,,,,
,,56,3,001,31,m,r,calibration,0.55,2,0,56,0.40766968306220214,-0.37360720091511007,1,False,0.6642020000144839,False,dot,dot,0.19813171705209381,8.417193503570036,1523.5120241461766,258.5423955561397,387,[np.int64(668)],nan,nan,nan,nan,nan,,,,,,,,,,3,001,31,m,r,,,,,,,
,,57,3,001,31,m,r,calibration,0.55,2,0,57,0.40766968306220214,-0.37360720091511007,1,False,0.5650684998836368,False,square,square,0.1966122557418615,8.526327970069433,1543.2653625825674,392.6952298181217,9,[np.int64(494)],nan,nan,nan,nan,nan,,,,,,,,,,3,001,31,m,r,,,,,,,
,,58,3,001,31,m,r,calibration,0.55,2,0,58,0.40766968306220214,-0.37360720091511007,1,False,0.5702190001029521,False,dot,dot,0.1952698051655323,7.519433234158233,1361.0174153826401,356.6395108318299,1404,[np.int64(1131)],nan,nan,nan,nan,nan,,,,,,,,,,3,001,31,m,r,,,,,,,
,,59,3,001,31,m,r,calibration,0.55,2,0,59,0.40766968306220214,-0.37360720091511007,0,False,0.9842429999262094,False,square,dot,0.18703901921963956,6.9366560924383185,1255.5347527313356,339.1487049583004,1075,[np.int64(1527)],nan,nan,nan,nan,nan,,,,,,,,,,3,001,31,m,r,,,,,,,
,,60,3,001,31,m,r,calibration,0.55,2,0,60,0.40766968306220214,-0.37360720091511007,1,False,0.6013112000655383,False,dot,dot,0.1853989453144215,6.880263851097213,1245.3277570485957,575.2234069228952,863,[np.int64(109)],-0.45314549018358624,3.6572844482630487,2.213196918097859,0.021147618242231152,0.020020587295200953,,,,,,,,,,3,001,31,m,r,,,,,,,
,,61,3,001,31,m,r,calibration,0.85,2,-1,1,0.5981210736084265,0.3976423325602886,1,False,0.5319148998241872,False,dot,dot,0.8833941500202273,14.721021632899193,2664.504915554754,225.1625035503558,922,[np.int64(186)],0.49887896444510554,3.2323377588830704,2.050691472501904,0.0257364756811414,0.02148582368615677,,,,,,,,,,3,001,31,m,r,0.21144361937432377,True,,,,,
,,62,3,001,31,m,r,calibration,0.85,2,-1,2,0.5350820483873121,0.14055915473515587,1,False,0.553865100024268,False,square,square,0.8974722567509856,14.670141367381346,2655.2955874960235,193.90243352040366,1049,[np.int64(910)],0.3118133766571681,3.2082444668428995,2.0424419558677074,0.025480950703595955,0.02143037331807896,,,,,,,,,,3,001,31,m,r,0.21144361937432377,True,,,,,
,,63,3,001,31,m,r,calibration,0.85,2,-1,3,0.5350820483873121,0.14055915473515587,1,False,0.6351662001106888,False,dot,dot,0.8872830967337415,16.053873386102637,2905.7510828845775,182.78106223309751,1040,[np.int64(19)],0.12417907816641394,3.202036049568465,2.0413069970393267,0.025192955999298612,0.021365090692057793,,,,,,,,,,3,001,31,m,r,0.21144361937432377,True,,,,,
,,64,3,001,31,m,r,calibration,0.85,2,-1,4,0.5350820483873121,0.14055915473515587,1,False,0.8032464000862092,False,dot,dot,0.8556339725168699,14.200636787020072,2570.315258450633,255.6694558356508,948,[np.int64(618)],-0.05217551202368467,3.212904805647718,2.0470640208696436,0.02487584370063665,0.021289789542834836,,,,,,,,,,3,001,31,m,r,0.21144361937432377,True,,,,,
,,65,3,001,31,m,r,calibration,0.85,2,-1,5,0.5981210736084265,0.3976423325602886,1,False,0.5867747999727726,False,square,square,0.8003514367271172,17.192966855505126,3111.9270008464277,211.64263496813956,246,[np.int64(210)],-0.19317776838267303,3.249692783827168,2.061588839060837,0.024504387610261986,0.02119693986790726,,,,,,,,,,3,001,31,m,r,0.21144361937432377,True,,,,,
,,66,3,001,31,m,r,calibration,0.85,2,-1,6,0.5981210736084265,0.3976423325602886,1,False,0.6207991000264883,False,square,square,0.7455100577193209,17.228129710108504,3118.2914775296395,215.9619496095613,1001,[np.int64(42)],-0.30702045345973,3.2958042780411603,2.0790037865465876,0.02411873104376625,0.021095329369743843,,,,,,,,,,3,001,31,m,r,0.21144361937432377,True,,,,,
,,67,3,001,31,m,r,calibration,0.85,2,-1,7,0.5350820483873121,0.14055915473515587,1,False,0.7030152000952512,False,square,square,0.7005904430629705,14.777352606368915,2674.7008217527737,203.4954882123335,771,[np.int64(1397)],-0.4153292982264823,3.3417221114163373,2.09729942929005,0.023748981829506743,0.020992970817421727,,,,,,,,,,3,001,31,m,r,0.21144361937432377,True,,,,,
,,68,3,001,31,m,r,calibration,0.85,2,-1,8,0.40766968306220214,-0.37360720091511007,1,False,0.5374757999088615,False,dot,dot,0.6796966365425421,6.1629939592199054,1115.5019066188029,465.39949764157564,127,[np.int64(927)],-0.536614435658069,3.347166072313858,2.098780271092517,0.023441796132000516,0.020904344156043253,,,,,,,,,,3,001,31,m,r,0.21144361937432377,True,,,,,
,,69,3,001,31,m,r,calibration,0.85,2,-1,9,0.347354013008391,-0.6306903787402434,1,False,0.5507869001012295,False,square,square,0.6687357149422902,3.5110514171217297,635.5003064990331,211.9814290514283,543,[np.int64(544)],-0.6576130589227142,3.333519110544848,2.0924404681215183,0.023162240896485956,0.02082078308103772,,,,,,,,,,3,001,31,m,r,0.21144361937432377,True,,,,,
,,70,3,001,31,m,r,calibration,0.85,2,-1,10,0.347354013008391,-0.6306903787402434,0,False,0.52015640004538,False,square,dot,0.6027989847165311,4.7227539976305515,854.8184735711297,429.48262575229063,1458,[np.int64(703)],-0.3195775189108301,3.322593478655497,2.088981231828214,0.02403795700527987,0.021065165542295403,,,,,,,,,,3,001,31,m,r,0.21144361937432377,True,,,,,
,,71,3,001,31,m,r,calibration,0.85,2,-1,11,0.5350820483873121,0.14055915473515587,1,False,0.8656661999411881,False,dot,dot,0.5619560538082633,13.30453230976252,2408.120348067016,149.14051565655527,1125,[np.int64(1091)],nan,nan,nan,nan,nan,,,,,,,,,,3,001,31,m,r,0.21144361937432377,True,,,,,
,,72,3,001,31,m,r,calibration,0.85,2,-1,12,0.47090191089840744,-0.11652402308997703,1,False,0.6156409999821335,False,dot,dot,0.5330726094665572,11.05057981312942,2000.1549461764253,97.19179991035617,1018,[np.int64(519)],nan,nan,nan,nan,nan,,,,,,,,,,3,001,31,m,r,0.21144361937432377,True,,,,,
,,73,3,001,31,m,r,calibration,0.85,2,-1,13,0.40766968306220214,-0.37360720091511007,1,False,0.6679535999428481,False,dot,dot,0.5166016023586985,7.655872990542718,1385.7130112882319,449.244255107507,1337,[np.int64(1061)],nan,nan,nan,nan,nan,,,,,,,,,,3,001,31,m,r,0.21144361937432377,True,,,,,
,,74,3,001,31,m,r,calibration,0.85,2,-1,14,0.40766968306220214,-0.37360720091511007,1,False,0.5529547999612987,False,square,square,0.5003211094960047,6.606522637856703,1195.7805974520631,343.29586232747386,1103,[np.int64(734)],nan,nan,nan,nan,nan,,,,,,,,,,3,001,31,m,r,0.21144361937432377,True,,,,,
,,75,3,001,31,m,r,calibration,0.85,2,-1,15,0.347354013008391,-0.6306903787402434,0,False,0.7853565998375416,False,dot,square,0.44851165446355845,4.526948657379947,819.3777069857704,441.4959641898031,2,[np.int64(1308)],nan,nan,nan,nan,nan,,,,,,,,,,3,001,31,m,r,0.21144361937432377,True,,,,,
,,76,3,001,31,m,r,calibration,0.85,2,-1,16,0.47090191089840744,-0.11652402308997703,0,False,1.0143365000840276,False,dot,square,0.48126909734906387,8.180823518387013,1480.7290568280496,338.1808627333895,1011,[np.int64(242)],nan,nan,nan,nan,nan,,,,,,,,,,3,001,31,m,r,0.21144361937432377,True,,,,,
,,77,3,001,31,m,r,calibration,0.85,2,-1,17,0.5981210736084265,0.3976423325602886,1,False,0.6152229998260736,False,square,square,0.4423279141432436,15.852780458410708,2869.353262972338,209.60157000675815,45,[np.int64(724)],nan,nan,nan,nan,nan,,,,,,,,,,3,001,31,m,r,0.21144361937432377,True,,,,,
,,78,3,001,31,m,r,calibration,0.85,2,-1,18,0.5350820483873121,0.14055915473515587,1,False,0.6014934000559151,False,dot,dot,0.4125541602132335,16.309124020400855,2951.9514476925547,224.4722452315245,1507,[np.int64(1193)],nan,nan,nan,nan,nan,,,,,,,,,,3,001,31,m,r,0.21144361937432377,True,,,,,
,,79,3,001,31,m,r,calibration,0.85,2,-1,19,0.5350820483873121,0.14055915473515587,1,False,0.6552512999624014,False,dot,dot,0.38824830133052524,16.122294185471116,2918.135247570272,193.17664535577137,572,[np.int64(156)],nan,nan,nan,nan,nan,,,,,,,,,,3,001,31,m,r,0.21144361937432377,True,,,,,
,,80,3,001,31,m,r,calibration,0.85,2,-1,20,0.47090191089840744,-0.11652402308997703,1,False,0.5854705998208374,False,dot,dot,0.3721892126702316,10.865951591760368,1966.7372381086266,285.60073714287626,1342,[np.int64(170)],-0.35315922648131237,3.474124549029155,2.1306162702107394,0.02356180053475311,0.020899520035925,,,,,,,,,,3,001,31,m,r,0.21144361937432377,True,,,,,
,,81,3,001,31,m,r,calibration,0.85,2,-1,21,0.47090191089840744,-0.11652402308997703,1,False,0.7679457000922412,False,dot,dot,0.3584090464216007,9.706182076909828,1756.818955920679,389.7180148668641,957,[np.int64(702)],nan,nan,nan,nan,nan,,,,,,,,,,3,001,31,m,r,0.21144361937432377,True,,,,,
,,82,3,001,31,m,r,calibration,0.85,2,-1,22,0.40766968306220214,-0.37360720091511007,1,False,0.5850070999003947,False,dot,dot,0.35302114992411526,6.532292886658798,1182.3450124852425,264.667762688688,701,[np.int64(903)],nan,nan,nan,nan,nan,,,,,,,,,,3,001,31,m,r,0.21144361937432377,True,,,,,
,,83,3,001,31,m,r,calibration,0.85,2,-1,23,0.40766968306220214,-0.37360720091511007,1,False,0.6384176998399198,False,dot,dot,0.34782584954763957,6.852543853012404,1240.3104373952451,414.2729851646601,1407,[np.int64(1273)],nan,nan,nan,nan,nan,,,,,,,,,,3,001,31,m,r,0.21144361937432377,True,,,,,
,,84,3,001,31,m,r,calibration,0.85,2,-1,24,0.40766968306220214,-0.37360720091511007,1,False,0.7706605999264866,False,dot,dot,0.3428782486939892,7.186201086809352,1300.7023967124928,288.70820323481763,1303,[np.int64(496)],nan,nan,nan,nan,nan,,,,,,,,,,3,001,31,m,r,0.21144361937432377,True,,,,,
,,85,3,001,31,m,r,calibration,0.85,2,-1,25,0.40766968306220214,-0.37360720091511007,1,False,0.6685737001243979,False,square,square,0.33824516277705563,8.012182755484252,1450.2050787426497,339.2901745627816,1009,[np.int64(1237)],nan,nan,nan,nan,nan,,,,,,,,,,3,001,31,m,r,0.21144361937432377,True,,,,,
,,86,3,001,31,m,r,calibration,0.85,2,-1,26,0.347354013008391,-0.6306903787402434,1,False,0.6035048000048846,False,square,square,0.34158605307220824,6.421748395795397,1162.336459638967,389.53810291897327,37,[np.int64(68)],nan,nan,nan,nan,nan,,,,,,,,,,3,001,31,m,r,0.21144361937432377,True,,,,,
,,87,3,001,31,m,r,calibration,0.85,2,-1,27,0.347354013008391,-0.6306903787402434,1,False,0.7043505001347512,False,square,square,0.34424503864362954,4.351174229470699,787.5625355341964,322.98921266700484,821,[np.int64(118)],nan,nan,nan,nan,nan,,,,,,,,,,3,001,31,m,r,0.21144361937432377,True,,,,,
,,88,3,001,31,m,r,calibration,0.85,2,-1,28,0.347354013008391,-0.6306903787402434,1,False,0.7047305000014603,False,dot,dot,0.34615037838753276,8.308281918310348,1503.7990272141728,157.69332778741767,1021,[np.int64(202)],nan,nan,nan,nan,nan,,,,,,,,,,3,001,31,m,r,0.21144361937432377,True,,,,,
,,89,3,001,31,m,r,calibration,0.85,2,-1,29,0.347354013008391,-0.6306903787402434,1,False,0.9363149001728743,False,square,square,0.34729730338623843,3.6786113125022815,665.8286475629129,411.72771680621696,238,[np.int64(1269)],nan,nan,nan,nan,nan,,,,,,,,,,3,001,31,m,r,0.21144361937432377,True,,,,,
,,90,3,001,31,m,r,calibration,0.85,2,-1,30,0.347354013008391,-0.6306903787402434,0,False,1.0695527999196202,False,square,dot,0.3040094681162762,3.176505197515964,574.9474407503895,364.8978443030385,1556,[np.int64(873)],-0.6019645662146547,3.517424147244604,2.1462730021601164,0.0218681030966262,0.02034440973430703,,,,,,,,,,3,001,31,m,r,0.21144361937432377,True,,,,,
,,91,3,001,31,m,r,calibration,0.85,2,-1,31,0.40766968306220214,-0.37360720091511007,1,False,0.5802653001155704,False,dot,dot,0.2989382404164271,6.486183076481538,1173.9991368431583,473.8024232097702,672,[np.int64(317)],nan,nan,nan,nan,nan,,,,,,,,,,3,001,31,m,r,0.21144361937432377,True,,,,,
,,92,3,001,31,m,r,calibration,0.85,2,-1,32,0.347354013008391,-0.6306903787402434,1,False,0.46198959997855127,False,square,square,0.2996539120945107,5.409842883591873,979.181561930129,292.16622529534953,332,[np.int64(993)],nan,nan,nan,nan,nan,,,,,,,,,,3,001,31,m,r,0.21144361937432377,True,,,,,
,,93,3,001,31,m,r,calibration,0.85,2,-1,33,0.347354013008391,-0.6306903787402434,1,False,0.6528428001329303,False,dot,dot,0.30010830883818757,3.8616956673094935,698.9669157830183,356.77873543833886,958,[np.int64(229)],nan,nan,nan,nan,nan,,,,,,,,,,3,001,31,m,r,0.21144361937432377,True,,,,,
,,94,3,001,31,m,r,calibration,0.85,2,-1,34,0.347354013008391,-0.6306903787402434,1,False,0.7727303002029657,False,dot,dot,0.30031131752716383,5.375939736360682,973.0450922812834,148.29937616144665,115,[np.int64(812)],nan,nan,nan,nan,nan,,,,,,,,,,3,001,31,m,r,0.21144361937432377,True,,,,,
,,95,3,001,31,m,r,calibration,0.85,2,-1,35,0.347354013008391,-0.6306903787402434,1,False,0.6513760001398623,False,dot,dot,0.30028849873735536,5.591917000441519,1012.1369770799149,335.3037449175019,1003,[np.int64(973)],nan,nan,nan,nan,nan,,,,,,,,,,3,001,31,m,r,0.21144361937432377,True,,,,,
,,96,3,001,31,m,r,calibration,0.85,2,-1,36,0.347354013008391,-0.6306903787402434,1,False,1.120672699995339,False,square,square,0.30007647604988247,6.166083262954578,1116.0610705947786,253.38966393333695,513,[np.int64(1259)],nan,nan,nan,nan,nan,,,,,,,,,,3,001,31,m,r,0.21144361937432377,True,,,,,
,,97,3,001,31,m,r,calibration,0.85,2,-1,37,0.29156950079727495,-0.887773556565376,1,False,0.5525080000516027,False,square,square,0.30655669826282217,3.591259756853331,650.0180159904529,291.5401655856672,169,[np.int64(1178)],nan,nan,nan,nan,nan,,,,,,,,,,3,001,31,m,r,0.21144361937432377,True,,,,,
,,98,3,001,31,m,r,calibration,0.85,2,-1,38,0.29156950079727495,-0.887773556565376,0,False,0.6703123000916094,False,dot,square,0.2646141557709669,4.370109699217121,790.9898555582989,466.71298020777624,1272,[np.int64(116)],nan,nan,nan,nan,nan,,,,,,,,,,3,001,31,m,r,0.21144361937432377,True,,,,,
,,99,3,001,31,m,r,calibration,0.85,2,-1,39,0.347354013008391,-0.6306903787402434,1,False,0.6494128999765962,False,dot,dot,0.26281059559083053,6.406687999515182,1159.610527912248,279.5253008287978,1220,[np.int64(1137)],nan,nan,nan,nan,nan,,,,,,,,,,3,001,31,m,r,0.21144361937432377,True,,,,,
,,100,3,001,31,m,r,calibration,0.85,2,-1,40,0.347354013008391,-0.6306903787402434,1,False,0.7147534000687301,False,square,square,0.26105632358316777,5.386142179051425,974.8917344083079,360.2655545363337,197,[np.int64(62)],-0.7966584759488639,3.7939718118078156,2.2720686618170056,0.019923572302171608,0.019581317530105523,,,,,,,,,,3,001,31,m,r,0.21144361937432377,True,,,,,
,,101,3,001,31,m,r,calibration,0.85,2,-1,41,0.347354013008391,-0.6306903787402434,1,False,0.7060996000654995,False,square,square,0.2593895823182036,4.523613072739606,818.7739661658686,438.98212139576077,1302,[np.int64(1263)],nan,nan,nan,nan,nan,,,,,,,,,,3,001,31,m,r,0.21144361937432377,True,,,,,
,,102,3,001,31,m,r,calibration,0.85,2,-1,42,0.29156950079727495,-0.887773556565376,0,False,0.6685307999141514,False,square,dot,0.2309156517161734,4.016722437779262,727.0267612380464,262.66637161666114,1262,[np.int64(80)],nan,nan,nan,nan,nan,,,,,,,,,,3,001,31,m,r,0.21144361937432377,True,,,,,
,,103,3,001,31,m,r,calibration,0.85,2,-1,43,0.347354013008391,-0.6306903787402434,1,False,0.5820770000573248,False,dot,dot,0.22817920603048075,7.56184412460993,1368.6937865543973,261.2154162014998,569,[np.int64(260)],nan,nan,nan,nan,nan,,,,,,,,,,3,001,31,m,r,0.21144361937432377,True,,,,,
,,104,3,001,31,m,r,calibration,0.85,2,-1,44,0.347354013008391,-0.6306903787402434,1,False,0.6984257998410612,False,square,square,0.22563924627335735,4.959705171967914,897.7066361261925,385.99505573930855,936,[np.int64(86)],nan,nan,nan,nan,nan,,,,,,,,,,3,001,31,m,r,0.21144361937432377,True,,,,,
,,105,3,001,31,m,r,calibration,0.85,2,-1,45,0.347354013008391,-0.6306903787402434,0,False,0.6030506000388414,False,dot,square,0.2147915895963133,4.7645817547845635,862.389297616006,295.8119887128678,892,[np.int64(111)],nan,nan,nan,nan,nan,,,,,,,,,,3,001,31,m,r,0.21144361937432377,True,,,,,
,,106,3,001,31,m,r,calibration,0.85,2,-1,46,0.347354013008391,-0.6306903787402434,1,False,0.7161122001707554,False,dot,dot,0.2121136760864524,4.969011755692611,899.3911277803626,224.09928136330853,1301,[np.int64(710)],nan,nan,nan,nan,nan,,,,,,,,,,3,001,31,m,r,0.21144361937432377,True,,,,,
,,107,3,001,31,m,r,calibration,0.85,2,-1,47,0.347354013008391,-0.6306903787402434,1,False,0.9649116001091897,False,square,square,0.20963185112861132,4.9948850974721095,904.0742026424518,388.30780853688447,499,[np.int64(594)],nan,nan,nan,nan,nan,,,,,,,,,,3,001,31,m,r,0.21144361937432377,True,,,,,
,,108,3,001,31,m,r,calibration,0.85,2,-1,48,0.347354013008391,-0.6306903787402434,1,False,0.6210613001603633,False,dot,dot,0.20735787252674778,6.339211667486607,1147.397311815076,312.8679666422788,1270,[np.int64(1550)],nan,nan,nan,nan,nan,,,,,,,,,,3,001,31,m,r,0.21144361937432377,True,,,,,
,,109,3,001,31,m,r,calibration,0.85,2,-1,49,0.347354013008391,-0.6306903787402434,1,False,1.120939200045541,False,dot,dot,0.20529735646057887,6.38934240466272,1156.4709752439524,334.45720619691144,1395,[np.int64(1090)],nan,nan,nan,nan,nan,,,,,,,,,,3,001,31,m,r,0.21144361937432377,True,,,,,
,,110,3,001,31,m,r,calibration,0.85,2,-1,50,0.347354013008391,-0.6306903787402434,1,False,0.6535674000624567,False,dot,dot,0.2034504825419306,2.780514711443523,503.27316277127767,487.15824595279423,32,[np.int64(772)],-0.8019350576850969,4.033989754131019,2.3672275920103933,0.019352128918936968,0.019307822423835257,,,,,,,,,,3,001,31,m,r,0.21144361937432377,True,,,,,
,,111,3,001,31,m,r,calibration,0.85,2,-1,51,0.347354013008391,-0.6306903787402434,1,False,0.5513266001362354,False,square,square,0.20181280277970834,5.798495344345932,1049.5276573266137,339.5787579253664,74,[np.int64(1236)],nan,nan,nan,nan,nan,,,,,,,,,,3,001,31,m,r,0.21144361937432377,True,,,,,
,,112,3,001,31,m,r,calibration,0.85,2,-1,52,0.347354013008391,-0.6306903787402434,1,False,0.7000319000799209,False,dot,dot,0.20037608860831335,3.174619967496178,574.6062141168082,356.44684967275225,1170,[np.int64(636)],nan,nan,nan,nan,nan,,,,,,,,,,3,001,31,m,r,0.21144361937432377,True,,,,,
,,113,3,001,31,m,r,calibration,0.85,2,-1,53,0.29156950079727495,-0.887773556565376,0,False,1.2679967998992652,False,dot,square,0.18199978396023295,4.136672076709722,748.7376458844597,307.7677412871165,974,[np.int64(635)],nan,nan,nan,nan,nan,,,,,,,,,,3,001,31,m,r,0.21144361937432377,True,,,,,
,,114,3,001,31,m,r,calibration,0.85,2,-1,54,0.347354013008391,-0.6306903787402434,0,False,0.9991628001444042,False,square,dot,0.17720912001332084,7.500064876810365,1357.511742702676,378.1463083465487,923,[np.int64(176)],nan,nan,nan,nan,nan,,,,,,,,,,3,001,31,m,r,0.21144361937432377,True,,,,,
,,115,3,001,31,m,r,calibration,0.85,2,-1,55,0.347354013008391,-0.6306903787402434,0,False,1.0279211001470685,False,dot,square,0.17543968917260025,4.057903110317184,734.4804629674103,429.4086359373897,1348,[np.int64(295)],nan,nan,nan,nan,nan,,,,,,,,,,3,001,31,m,r,0.21144361937432377,True,,,,,
,,116,3,001,31,m,r,calibration,0.85,2,-1,56,0.347354013008391,-0.6306903787402434,1,False,0.6336203999817371,False,square,square,0.17264427729911205,6.126757736065828,1108.9431502279149,253.39248231727203,1319,[np.int64(1423)],nan,nan,nan,nan,nan,,,,,,,,,,3,001,31,m,r,0.21144361937432377,True,,,,,
,,117,3,001,31,m,r,calibration,0.85,2,-1,57,0.347354013008391,-0.6306903787402434,0,False,0.6193757997825742,False,square,dot,0.1724084796793678,4.828493035358223,873.9572393998384,246.5104119054619,683,[np.int64(406)],nan,nan,nan,nan,nan,,,,,,,,,,3,001,31,m,r,0.21144361937432377,True,,,,,
,,118,3,001,31,m,r,calibration,0.85,2,-1,58,0.40766968306220214,-0.37360720091511007,1,False,1.0489727999083698,False,dot,dot,0.16817758301122818,6.4340977982631795,1164.5717014856355,408.4800781676752,476,[np.int64(261)],nan,nan,nan,nan,nan,,,,,,,,,,3,001,31,m,r,0.21144361937432377,True,,,,,
,,119,3,001,31,m,r,calibration,0.85,2,-1,59,0.40766968306220214,-0.37360720091511007,1,False,0.5851505999453366,False,square,square,0.16439927824846085,5.662744679043574,1024.956786906887,463.24747432621547,1320,[np.int64(652)],nan,nan,nan,nan,nan,,,,,,,,,,3,001,31,m,r,0.21144361937432377,True,,,,,
,,120,3,001,31,m,r,calibration,0.85,2,-1,60,0.347354013008391,-0.6306903787402434,1,False,0.5477873000781983,False,dot,dot,0.16211173768246298,5.973261001321414,1081.160241239176,562.5188935000091,866,[np.int64(1274)],-0.6696483605466572,3.9515642106624354,2.2927376061511713,0.0211735146222236,0.020015693987986128,,,,,,,,,,3,001,31,m,r,0.21144361937432377,True,,,,,
,,121,3,001,31,m,r,test,,2,1,1,0.21144361937432377,,0,False,1.5501727999653667,False,img_B,img_A,,2.712659621665637,482.8534126564834,171.52192538206907,740,[np.int64(792)],,,,,,low,0.21144361937432377,3,vest_09s,soap_06s,11,21,31,42,3,001,31,m,r,0.21144361937432377,True,0.40766968306220214,True,"['low', 'high', 'low', 'high', 'low', 'high']",low,
,,122,3,001,31,m,r,test,,2,1,2,0.21144361937432377,,1,False,0.9775026999413967,False,img_B,img_B,,0.9794466367146899,177.27984124535888,439.32815614569154,1418,[np.int64(1230)],,,,,,low,0.21144361937432377,3,toad_06s,sloth_03s,11,21,31,41,3,001,31,m,r,0.21144361937432377,True,0.40766968306220214,True,"['low', 'high', 'low', 'high', 'low', 'high']",low,
,,123,3,001,31,m,r,test,,2,1,3,0.21144361937432377,,1,False,1.1788908999878913,False,img_A,img_A,,2.4739988109619833,447.79378478411894,276.4087585583898,1145,[np.int64(322)],,,,,,low,0.21144361937432377,3,goat_02n,candy_cane_05s,11,21,31,41,3,001,31,m,r,0.21144361937432377,True,0.40766968306220214,True,"['low', 'high', 'low', 'high', 'low', 'high']",low,
,,124,3,001,31,m,r,test,,2,1,4,0.21144361937432377,,1,False,1.3140263000968844,False,img_B,img_B,,1.6285169987867454,294.7615767804009,499.97190650220807,1068,[np.int64(806)],,,,,,low,0.21144361937432377,2,hairdryer_06s,tack_01b,11,21,31,41,3,001,31,m,r,0.21144361937432377,True,0.40766968306220214,True,"['low', 'high', 'low', 'high', 'low', 'high']",low,
,,125,3,001,31,m,r,test,,2,1,5,0.21144361937432377,,1,False,1.1291159000247717,False,img_B,img_B,,1.9601198762705123,354.78169760496274,349.2262778161819,1057,[np.int64(245)],,,,,,low,0.21144361937432377,5,nutcracker_03s,sleeping_bag_12s,11,21,31,41,3,001,31,m,r,0.21144361937432377,True,0.40766968306220214,True,"['low', 'high', 'low', 'high', 'low', 'high']",low,
,,126,3,001,31,m,r,test,,2,1,6,0.21144361937432377,,1,False,0.9457268000114709,False,img_A,img_A,,0.7283415791427253,131.82982582483328,359.9961846347245,1490,[np.int64(306)],,,,,,low,0.21144361937432377,3,sorbet_05s,football_helmet_05s,11,21,31,41,3,001,31,m,r,0.21144361937432377,True,0.40766968306220214,True,"['low', 'high', 'low', 'high', 'low', 'high']",low,
,,127,3,001,31,m,r,test,,2,1,7,0.21144361937432377,,1,False,0.6108821001835167,False,img_B,img_B,,2.3846991620785642,431.63054833622016,59.06581179426158,29,[np.int64(249)],,,,,,low,0.21144361937432377,3,boxer_shorts_03s,hydrant_01s,11,21,31,41,3,001,31,m,r,0.21144361937432377,True,0.40766968306220214,True,"['low', 'high', 'low', 'high', 'low', 'high']",low,
,,128,3,001,31,m,r,test,,2,1,8,0.21144361937432377,,0,False,1.7950577998999506,False,img_B,img_A,,3.064139935116006,554.6093282559971,289.6422999217488,523,[np.int64(514)],,,,,,low,0.21144361937432377,2,boxing_gloves_08s,coaster_05s,11,21,31,42,3,001,31,m,r,0.21144361937432377,True,0.40766968306220214,True,"['low', 'high', 'low', 'high', 'low', 'high']",low,
,,129,3,001,31,m,r,test,,2,1,9,0.21144361937432377,,1,False,2.012622300069779,False,img_A,img_A,,3.4988121451626393,633.2849982744377,503.88893336601285,611,[np.int64(1036)],,,,,,low,0.21144361937432377,2,costume_04s,blindfold_15s,11,21,31,41,3,001,31,m,r,0.21144361937432377,True,0.40766968306220214,True,"['low', 'high', 'low', 'high', 'low', 'high']",low,
,,130,3,001,31,m,r,test,,2,1,10,0.21144361937432377,,1,False,1.112599499989301,False,img_B,img_B,,1.8411738442615253,333.2524658113361,416.3463453909623,676,[np.int64(177)],,,,,,low,0.21144361937432377,2,cookie_11s,tomato_sauce_07s,11,21,31,41,3,001,31,m,r,0.21144361937432377,True,0.40766968306220214,True,"['low', 'high', 'low', 'high', 'low', 'high']",low,
,,131,3,001,31,m,r,test,,2,1,11,0.21144361937432377,,1,False,1.6758820000104606,False,img_B,img_B,,3.222364472851812,583.247969586178,550.8291447721314,632,[np.int64(686)],,,,,,low,0.21144361937432377,1,curling_iron_05s,pantsuit_07s,11,21,31,41,3,001,31,m,r,0.21144361937432377,True,0.40766968306220214,True,"['low', 'high', 'low', 'high', 'low', 'high']",low,
,,132,3,001,31,m,r,test,,2,1,12,0.21144361937432377,,1,False,1.1955316998064518,False,img_B,img_B,,2.8185623221667706,510.1597803121855,436.1563392801707,1124,[np.int64(828)],,,,,,low,0.21144361937432377,4,limousine_01s,rattle_12s,11,21,31,41,3,001,31,m,r,0.21144361937432377,True,0.40766968306220214,True,"['low', 'high', 'low', 'high', 'low', 'high']",low,
,,133,3,001,31,m,r,test,,2,1,13,0.21144361937432377,,0,False,1.230754500022158,False,img_B,img_A,,2.8607995547907117,517.8047194171188,336.48946596030436,730,[np.int64(360)],,,,,,low,0.21144361937432377,2,pacifier_07s,bib_13n,11,21,31,42,3,001,31,m,r,0.21144361937432377,True,0.40766968306220214,True,"['low', 'high', 'low', 'high', 'low', 'high']",low,
,,134,3,001,31,m,r,test,,2,1,14,0.21144361937432377,,1,False,1.1151845999993384,False,img_A,img_A,,4.55667758938559,824.7586436787917,343.634643972479,1127,[np.int64(576)],,,,,,low,0.21144361937432377,2,chopsticks_04s,elephant_07n,11,21,31,41,3,001,31,m,r,0.21144361937432377,True,0.40766968306220214,True,"['low', 'high', 'low', 'high', 'low', 'high']",low,
,,135,3,001,31,m,r,test,,2,1,15,0.21144361937432377,,0,False,1.0296018000226468,False,img_A,img_B,,2.604398195747845,471.39607343035993,358.6210106216821,1217,[np.int64(606)],,,,,,low,0.21144361937432377,3,dip_05s,boot_08s,11,21,31,42,3,001,31,m,r,0.21144361937432377,True,0.40766968306220214,True,"['low', 'high', 'low', 'high', 'low', 'high']",low,
,,136,3,001,31,m,r,test,,2,1,16,0.21144361937432377,,0,False,1.7282006000168622,False,img_B,img_A,,2.549203099780954,461.4057610603527,404.63345724549316,1139,[np.int64(847)],,,,,,low,0.21144361937432377,1,pretzel_07s,tube_top_10s,11,21,31,42,3,001,31,m,r,0.21144361937432377,True,0.40766968306220214,True,"['low', 'high', 'low', 'high', 'low', 'high']",low,
,,137,3,001,31,m,r,test,,2,1,17,0.21144361937432377,,1,False,1.44296870008111,False,img_B,img_B,,5.233564801535315,947.2752290778919,252.47802860472015,252,[np.int64(852)],,,,,,low,0.21144361937432377,1,pea_14s,hobbyhorse_04s,11,21,31,41,3,001,31,m,r,0.21144361937432377,True,0.40766968306220214,True,"['low', 'high', 'low', 'high', 'low', 'high']",low,
,,138,3,001,31,m,r,test,,2,1,18,0.21144361937432377,,0,False,1.2162416998762637,False,img_B,img_A,,4.351051491378581,787.5403199395232,298.8142951302006,1017,[np.int64(906)],,,,,,low,0.21144361937432377,2,washing_machine_05s,sushi_08s,11,21,31,42,3,001,31,m,r,0.21144361937432377,True,0.40766968306220214,True,"['low', 'high', 'low', 'high', 'low', 'high']",low,
,,139,3,001,31,m,r,test,,2,1,19,0.21144361937432377,,1,False,1.3640956999734044,False,img_B,img_B,,5.831514860253025,1055.5041897057974,459.1726288095518,1060,[np.int64(239)],,,,,,low,0.21144361937432377,1,jelly_bean_13n,wallet_05s,11,21,31,41,3,001,31,m,r,0.21144361937432377,True,0.40766968306220214,True,"['low', 'high', 'low', 'high', 'low', 'high']",low,
,,140,3,001,31,m,r,test,,2,1,20,0.21144361937432377,,0,False,1.0791579000651836,False,img_B,img_A,,3.9974428078974746,723.5371482294429,352.5567950928495,1478,[np.int64(1029)],,,,,,low,0.21144361937432377,1,football_01b,spider_web_14s,11,21,31,42,3,001,31,m,r,0.21144361937432377,True,0.40766968306220214,True,"['low', 'high', 'low', 'high', 'low', 'high']",low,
,,141,3,001,31,m,r,test,,2,2,1,0.40766968306220214,,1,False,1.0655034999363124,False,img_B,img_B,,8.170475058067757,1478.855985510264,347.8543825474351,125,[np.int64(656)],,,,,,high,0.40766968306220214,3,blower_08s,sweeper_02s,13,23,33,41,3,001,31,m,r,0.21144361937432377,True,0.40766968306220214,True,"['low', 'high', 'low', 'high', 'low', 'high']",low,
,,142,3,001,31,m,r,test,,2,2,2,0.40766968306220214,,1,False,1.2770911999978125,False,img_B,img_B,,4.988623356634573,902.9408275508576,397.5462213213259,190,[np.int64(1574)],,,,,,high,0.40766968306220214,2,swordfish_08s,mashed_potato_05s,13,23,33,41,3,001,31,m,r,0.21144361937432377,True,0.40766968306220214,True,"['low', 'high', 'low', 'high', 'low', 'high']",low,
,,143,3,001,31,m,r,test,,2,2,3,0.40766968306220214,,1,False,1.0798506999853998,False,img_B,img_B,,7.765596290835742,1405.5729286412693,234.95885834986743,498,[np.int64(1448)],,,,,,high,0.40766968306220214,4,meatball_16s,sandbox_10s,13,23,33,41,3,001,31,m,r,0.21144361937432377,True,0.40766968306220214,True,"['low', 'high', 'low', 'high', 'low', 'high']",low,
,,144,3,001,31,m,r,test,,2,2,4,0.40766968306220214,,1,False,1.0963246000465006,False,img_B,img_B,,5.418784655055619,980.8000225650671,364.97421495265166,790,[np.int64(248)],,,,,,high,0.40766968306220214,2,domino_02s,dreidel_10s,13,23,33,41,3,001,31,m,r,0.21144361937432377,True,0.40766968306220214,True,"['low', 'high', 'low', 'high', 'low', 'high']",low,
,,145,3,001,31,m,r,test,,2,2,5,0.40766968306220214,,1,False,1.3309123001527041,False,img_B,img_B,,8.09181953184107,1464.6193352632336,258.1868334567219,1323,[np.int64(953)],,,,,,high,0.40766968306220214,1,corset_08s,leggings_12s,13,23,33,41,3,001,31,m,r,0.21144361937432377,True,0.40766968306220214,True,"['low', 'high', 'low', 'high', 'low', 'high']",low,
,,146,3,001,31,m,r,test,,2,2,6,0.40766968306220214,,1,False,1.2134581001009792,False,img_B,img_B,,8.021929194424157,1451.9691841907722,327.6287005059252,327,[np.int64(776)],,,,,,high,0.40766968306220214,2,sink_01b,flipper_12s,13,23,33,41,3,001,31,m,r,0.21144361937432377,True,0.40766968306220214,True,"['low', 'high', 'low', 'high', 'low', 'high']",low,
,,147,3,001,31,m,r,test,,2,2,7,0.40766968306220214,,1,False,1.6953636000398546,False,img_B,img_B,,7.55947249624036,1368.2645218195053,95.33806956333633,509,[np.int64(534)],,,,,,high,0.40766968306220214,3,clasp_09s,sauerkraut_03s,13,23,33,41,3,001,31,m,r,0.21144361937432377,True,0.40766968306220214,True,"['low', 'high', 'low', 'high', 'low', 'high']",low,
,,148,3,001,31,m,r,test,,2,2,8,0.40766968306220214,,1,False,1.4437599999364465,False,img_A,img_A,,9.492063365290683,1718.0634691176137,340.63006029474326,269,[np.int64(371)],,,,,,high,0.40766968306220214,4,hamburger_02s,cornhusk_12s,13,23,33,41,3,001,31,m,r,0.21144361937432377,True,0.40766968306220214,True,"['low', 'high', 'low', 'high', 'low', 'high']",low,
,,149,3,001,31,m,r,test,,2,2,9,0.40766968306220214,,1,False,1.4164392000529915,False,img_A,img_A,,4.103894759714826,742.8049515083834,171.48793535085656,141,[np.int64(1357)],,,,,,high,0.40766968306220214,1,coffee_bean_12s,ready_meal_11s,13,23,33,41,3,001,31,m,r,0.21144361937432377,True,0.40766968306220214,True,"['low', 'high', 'low', 'high', 'low', 'high']",low,
,,150,3,001,31,m,r,test,,2,2,10,0.40766968306220214,,1,False,2.431269000051543,False,img_A,img_A,,8.788989777024522,1590.8071496414386,267.62294207561814,1148,[np.int64(617)],,,,,,high,0.40766968306220214,2,kangaroo_11s,toast_13s,13,23,33,41,3,001,31,m,r,0.21144361937432377,True,0.40766968306220214,True,"['low', 'high', 'low', 'high', 'low', 'high']",low,
,,151,3,001,31,m,r,test,,2,2,11,0.40766968306220214,,1,False,1.3474389999173582,False,img_A,img_A,,8.641901373574084,1564.1841486169092,234.7337332998736,522,[np.int64(599)],,,,,,high,0.40766968306220214,2,frisbee_04s,glove_13s,13,23,33,41,3,001,31,m,r,0.21144361937432377,True,0.40766968306220214,True,"['low', 'high', 'low', 'high', 'low', 'high']",low,
,,152,3,001,31,m,r,test,,2,2,12,0.40766968306220214,,0,False,1.0971848000772297,False,img_B,img_A,,4.410361757737425,798.2754781504739,325.6508124450847,507,[np.int64(1149)],,,,,,high,0.40766968306220214,4,lollipop_06n,spacesuit_06s,13,23,33,42,3,001,31,m,r,0.21144361937432377,True,0.40766968306220214,True,"['low', 'high', 'low', 'high', 'low', 'high']",low,
,,153,3,001,31,m,r,test,,2,2,13,0.40766968306220214,,1,False,1.2449395000003278,False,img_A,img_A,,7.20588493847799,1304.265173864516,354.8318058336701,196,[np.int64(1030)],,,,,,high,0.40766968306220214,3,staple_01b,figurine_11s,13,23,33,41,3,001,31,m,r,0.21144361937432377,True,0.40766968306220214,True,"['low', 'high', 'low', 'high', 'low', 'high']",low,
,,154,3,001,31,m,r,test,,2,2,14,0.40766968306220214,,1,False,0.6978907999582589,False,img_A,img_A,,6.670243363792987,1207.3140488465306,286.88692312945625,300,[np.int64(1416)],,,,,,high,0.40766968306220214,3,taffy_02s,creme_brulee_10s,13,23,33,41,3,001,31,m,r,0.21144361937432377,True,0.40766968306220214,True,"['low', 'high', 'low', 'high', 'low', 'high']",low,
,,155,3,001,31,m,r,test,,2,2,15,0.40766968306220214,,1,False,1.511506199836731,False,img_A,img_A,,4.427341769894615,801.3488603509253,412.6873625011112,1381,[np.int64(1475)],,,,,,high,0.40766968306220214,1,toothbrush_01s,bracelet1_05s,13,23,33,41,3,001,31,m,r,0.21144361937432377,True,0.40766968306220214,True,"['low', 'high', 'low', 'high', 'low', 'high']",low,
,,156,3,001,31,m,r,test,,2,2,16,0.40766968306220214,,0,False,1.212371899979189,False,img_A,img_B,,6.509701503659097,1178.2559721622965,310.65137409191374,1549,[np.int64(1594)],,,,,,high,0.40766968306220214,2,locker_08s,mushroom_08n,13,23,33,42,3,001,31,m,r,0.21144361937432377,True,0.40766968306220214,True,"['low', 'high', 'low', 'high', 'low', 'high']",low,
,,157,3,001,31,m,r,test,,2,2,17,0.40766968306220214,,1,False,1.2321666001807898,False,img_A,img_A,,6.292239472043726,1138.8953444399144,329.3529085567885,1261,[np.int64(667)],,,,,,high,0.40766968306220214,3,caviar_01b,drumstick_12s,13,23,33,41,3,001,31,m,r,0.21144361937432377,True,0.40766968306220214,True,"['low', 'high', 'low', 'high', 'low', 'high']",low,
,,158,3,001,31,m,r,test,,2,2,18,0.40766968306220214,,1,False,1.974158399971202,False,img_A,img_A,,6.208674639213441,1123.7701096976327,214.42753394567234,925,[np.int64(867)],,,,,,high,0.40766968306220214,2,dalmatian_10s,dough_19s,13,23,33,41,3,001,31,m,r,0.21144361937432377,True,0.40766968306220214,True,"['low', 'high', 'low', 'high', 'low', 'high']",low,
,,159,3,001,31,m,r,test,,2,2,19,0.40766968306220214,,0,False,2.146306499838829,False,img_A,img_B,,6.19393722643848,1121.102637985365,322.78705017578415,660,[np.int64(533)],,,,,,high,0.40766968306220214,1,saffron_14s,tattoo_12s,13,23,33,42,3,001,31,m,r,0.21144361937432377,True,0.40766968306220214,True,"['low', 'high', 'low', 'high', 'low', 'high']",low,
,,160,3,001,31,m,r,test,,2,2,20,0.40766968306220214,,0,False,1.1792994998395443,False,img_B,img_A,,5.082280619884762,919.8927921991419,151.43392168111382,366,[np.int64(1450)],,,,,,high,0.40766968306220214,2,checkers_07s,walrus_02n,13,23,33,42,3,001,31,m,r,0.21144361937432377,True,0.40766968306220214,True,"['low', 'high', 'low', 'high', 'low', 'high']",low,
,,161,3,001,31,m,r,test,,2,3,1,0.21144361937432377,,1,False,1.2147125999908894,False,img_A,img_A,,1.9565549172858188,354.1364400287332,66.38448015431894,749,[np.int64(1244)],,,,,,low,0.21144361937432377,3,quiche_07s,avocado_13s,11,21,31,41,3,001,31,m,r,0.21144361937432377,True,0.40766968306220214,True,"['low', 'high', 'low', 'high', 'low', 'high']",low,
,,162,3,001,31,m,r,test,,2,3,2,0.21144361937432377,,0,False,0.8440905997995287,False,img_A,img_B,,3.459867612986451,626.2360379505476,245.68411651772232,783,[np.int64(153)],,,,,,low,0.21144361937432377,3,otter_12s,urinal_10s,11,21,31,42,3,001,31,m,r,0.21144361937432377,True,0.40766968306220214,True,"['low', 'high', 'low', 'high', 'low', 'high']",low,
,,163,3,001,31,m,r,test,,2,3,3,0.21144361937432377,,0,False,1.0770386001095176,False,img_A,img_B,,4.072072273551943,737.0450815129018,325.19371832626075,517,[np.int64(1099)],,,,,,low,0.21144361937432377,2,filing_cabinet_07s,batter_04s,11,21,31,42,3,001,31,m,r,0.21144361937432377,True,0.40766968306220214,True,"['low', 'high', 'low', 'high', 'low', 'high']",low,
,,164,3,001,31,m,r,test,,2,3,4,0.21144361937432377,,0,False,1.8289440998341888,False,img_A,img_B,,3.1684435539358646,573.4882832623915,248.2546873957597,1027,[np.int64(949)],,,,,,low,0.21144361937432377,1,snorkel_09s,skewer_01b,11,21,31,42,3,001,31,m,r,0.21144361937432377,True,0.40766968306220214,True,"['low', 'high', 'low', 'high', 'low', 'high']",low,
,,165,3,001,31,m,r,test,,2,3,5,0.21144361937432377,,1,False,1.1433656001463532,False,img_A,img_A,,1.0142162310175216,183.5731378141714,202.67005306678845,1528,[np.int64(424)],,,,,,low,0.21144361937432377,3,mitten_04s,barrette_01b,11,21,31,41,3,001,31,m,r,0.21144361937432377,True,0.40766968306220214,True,"['low', 'high', 'low', 'high', 'low', 'high']",low,
,,166,3,001,31,m,r,test,,2,3,6,0.21144361937432377,,1,False,1.5134178998414427,False,img_A,img_A,,1.090526325491508,197.38526491396294,447.3039349696853,929,[np.int64(1053)],,,,,,low,0.21144361937432377,1,shark_07s,faucet_09s,11,21,31,41,3,001,31,m,r,0.21144361937432377,True,0.40766968306220214,True,"['low', 'high', 'low', 'high', 'low', 'high']",low,
,,167,3,001,31,m,r,test,,2,3,7,0.21144361937432377,,1,False,1.3808839998673648,False,img_B,img_B,,2.3518749489654476,425.689365762746,413.2183589701749,48,[np.int64(1276)],,,,,,low,0.21144361937432377,2,light_switch_17s,lion_22s,11,21,31,41,3,001,31,m,r,0.21144361937432377,True,0.40766968306220214,True,"['low', 'high', 'low', 'high', 'low', 'high']",low,
,,168,3,001,31,m,r,test,,2,3,8,0.21144361937432377,,0,False,1.1310288000386208,False,img_A,img_B,,3.7905705532014458,686.0932701294616,255.7515810057068,1443,[np.int64(1400)],,,,,,low,0.21144361937432377,4,cardinal_05s,eggplant_05n,11,21,31,42,3,001,31,m,r,0.21144361937432377,True,0.40766968306220214,True,"['low', 'high', 'low', 'high', 'low', 'high']",low,
,,169,3,001,31,m,r,test,,2,3,9,0.21144361937432377,,0,False,1.2629072000272572,False,img_A,img_B,,1.4326757283998448,259.3143068403719,294.81460939086526,1509,[np.int64(33)],,,,,,low,0.21144361937432377,1,shaving_cream_05s,shower_cap_12s,11,21,31,42,3,001,31,m,r,0.21144361937432377,True,0.40766968306220214,True,"['low', 'high', 'low', 'high', 'low', 'high']",low,
,,170,3,001,31,m,r,test,,2,3,10,0.21144361937432377,,0,False,1.115542999934405,False,img_B,img_A,,2.768915879108665,501.1737741186684,439.8267556107182,404,[np.int64(3)],,,,,,low,0.21144361937432377,2,cauliflower_02s,handbrake_07s,11,21,31,42,3,001,31,m,r,0.21144361937432377,True,0.40766968306220214,True,"['low', 'high', 'low', 'high', 'low', 'high']",low,
,,171,3,001,31,m,r,test,,2,3,11,0.21144361937432377,,1,False,1.0133007999975234,False,img_A,img_A,,0.36726419625158907,66.47481952153763,257.31341988388465,1328,[np.int64(204)],,,,,,low,0.21144361937432377,4,dumpster_02s,koala_10s,11,21,31,41,3,001,31,m,r,0.21144361937432377,True,0.40766968306220214,True,"['low', 'high', 'low', 'high', 'low', 'high']",low,
,,172,3,001,31,m,r,test,,2,3,12,0.21144361937432377,,1,False,1.1623889999464154,False,img_B,img_B,,2.9516948456078267,534.2567670550167,256.96616929196597,819,[np.int64(1346)],,,,,,low,0.21144361937432377,2,nightshirt_01b,hot_tub_07s,11,21,31,41,3,001,31,m,r,0.21144361937432377,True,0.40766968306220214,True,"['low', 'high', 'low', 'high', 'low', 'high']",low,
,,173,3,001,31,m,r,test,,2,3,13,0.21144361937432377,,1,False,1.1298875000793487,False,img_A,img_A,,-0.3381200289716062,-61.199725243860726,365.68775061190297,994,[np.int64(1102)],,,,,,low,0.21144361937432377,2,mulberry_02s,waffle_iron_14s,11,21,31,41,3,001,31,m,r,0.21144361937432377,True,0.40766968306220214,True,"['low', 'high', 'low', 'high', 'low', 'high']",low,
,,174,3,001,31,m,r,test,,2,3,14,0.21144361937432377,,1,False,0.7315120999701321,False,img_A,img_A,,-1.7229010367135271,-311.8450876451484,567.9505074661624,895,[np.int64(918)],,,,,,low,0.21144361937432377,2,pizza_03s,green_beans_12s,11,21,31,41,3,001,31,m,r,0.21144361937432377,True,0.40766968306220214,True,"['low', 'high', 'low', 'high', 'low', 'high']",low,
,,175,3,001,31,m,r,test,,2,3,15,0.21144361937432377,,1,False,1.0782586999703199,False,img_B,img_B,,2.5013274283270563,452.7402645271972,323.61418617308783,978,[np.int64(1085)],,,,,,low,0.21144361937432377,2,fingerprint_12s,kimono_02s,11,21,31,41,3,001,31,m,r,0.21144361937432377,True,0.40766968306220214,True,"['low', 'high', 'low', 'high', 'low', 'high']",low,
,,176,3,001,31,m,r,test,,2,3,16,0.21144361937432377,,0,False,0.681045499863103,False,img_B,img_A,,2.482195801045164,449.2774399891747,339.90201096582445,961,[np.int64(723)],,,,,,low,0.21144361937432377,3,quesadilla_23s,apron_13s,11,21,31,42,3,001,31,m,r,0.21144361937432377,True,0.40766968306220214,True,"['low', 'high', 'low', 'high', 'low', 'high']",low,
,,177,3,001,31,m,r,test,,2,3,17,0.21144361937432377,,1,False,0.9948287000879645,False,img_A,img_A,,-0.2639937122385565,-47.78286191517873,491.12133599164474,247,[np.int64(887)],,,,,,low,0.21144361937432377,2,dishrag_10s,test_tube_12s,11,21,31,41,3,001,31,m,r,0.21144361937432377,True,0.40766968306220214,True,"['low', 'high', 'low', 'high', 'low', 'high']",low,
,,178,3,001,31,m,r,test,,2,3,18,0.21144361937432377,,1,False,1.0939696999266744,False,img_B,img_B,,3.631230159249016,657.2526588240719,443.20627742942384,1097,[np.int64(39)],,,,,,low,0.21144361937432377,2,eggshell_12s,polo_shirt_04s,11,21,31,41,3,001,31,m,r,0.21144361937432377,True,0.40766968306220214,True,"['low', 'high', 'low', 'high', 'low', 'high']",low,
,,179,3,001,31,m,r,test,,2,3,19,0.21144361937432377,,0,False,1.7618029001168907,False,img_A,img_B,,2.289379471249191,414.37768429610355,473.4583421244275,1022,[np.int64(945)],,,,,,low,0.21144361937432377,1,swab_14s,snack_12s,11,21,31,42,3,001,31,m,r,0.21144361937432377,True,0.40766968306220214,True,"['low', 'high', 'low', 'high', 'low', 'high']",low,
,,180,3,001,31,m,r,test,,2,3,20,0.21144361937432377,,0,False,1.874937399988994,False,img_A,img_B,,1.4793832312128292,267.7683648495221,465.912541906063,671,[np.int64(399)],,,,,,low,0.21144361937432377,2,wrench_03s,pinball_02s,11,21,31,42,3,001,31,m,r,0.21144361937432377,True,0.40766968306220214,True,"['low', 'high', 'low', 'high', 'low', 'high']",low,
,,181,3,001,31,m,r,test,,2,4,1,0.40766968306220214,,1,False,1.0127659998834133,False,img_B,img_B,,5.797409399334392,1049.331101279525,423.57203864018663,136,[np.int64(950)],,,,,,high,0.40766968306220214,5,pita_02s,spaghetti_07s,13,23,33,41,3,001,31,m,r,0.21144361937432377,True,0.40766968306220214,True,"['low', 'high', 'low', 'high', 'low', 'high']",low,
,,182,3,001,31,m,r,test,,2,4,2,0.40766968306220214,,1,False,1.1587193999439478,False,img_A,img_A,,8.075198445203158,1461.6109185817718,276.3260584974298,31,[np.int64(1351)],,,,,,high,0.40766968306220214,6,crouton_12s,olive_04s,13,23,33,41,3,001,31,m,r,0.21144361937432377,True,0.40766968306220214,True,"['low', 'high', 'low', 'high', 'low', 'high']",low,
,,183,3,001,31,m,r,test,,2,4,3,0.40766968306220214,,0,False,1.2458428998943418,False,img_B,img_A,,6.846566608581879,1239.2285561533201,386.98116437781255,20,[np.int64(265)],,,,,,high,0.40766968306220214,5,lanyard_13s,calf1_12s,13,23,33,42,3,001,31,m,r,0.21144361937432377,True,0.40766968306220214,True,"['low', 'high', 'low', 'high', 'low', 'high']",low,
,,184,3,001,31,m,r,test,,2,4,4,0.40766968306220214,,1,False,0.8956738000269979,False,img_B,img_B,,7.807394777906508,1413.1384548010778,411.8260665967892,1153,[np.int64(1487)],,,,,,high,0.40766968306220214,6,rooster_07s,sewage_09s,13,23,33,41,3,001,31,m,r,0.21144361937432377,True,0.40766968306220214,True,"['low', 'high', 'low', 'high', 'low', 'high']",low,
,,185,3,001,31,m,r,test,,2,4,5,0.40766968306220214,,1,False,0.597483899910003,False,img_A,img_A,,6.3543539372897,1150.1380626494356,348.3124629573924,1108,[np.int64(602)],,,,,,high,0.40766968306220214,6,ketchup_15s,cloak_12s,13,23,33,41,3,001,31,m,r,0.21144361937432377,True,0.40766968306220214,True,"['low', 'high', 'low', 'high', 'low', 'high']",low,
,,186,3,001,31,m,r,test,,2,4,6,0.40766968306220214,,1,False,1.1950168998446316,False,img_B,img_B,,6.43038160627923,1163.8990707365406,234.9432700263021,947,[np.int64(1010)],,,,,,high,0.40766968306220214,6,pug_19s,breadstick_14s,13,23,33,41,3,001,31,m,r,0.21144361937432377,True,0.40766968306220214,True,"['low', 'high', 'low', 'high', 'low', 'high']",low,
,,187,3,001,31,m,r,test,,2,4,7,0.40766968306220214,,1,False,1.0444149000104517,False,img_A,img_A,,5.459922295091818,988.245935411619,287.0434326189328,551,[np.int64(663)],,,,,,high,0.40766968306220214,5,peg_09s,yarn_14s,13,23,33,41,3,001,31,m,r,0.21144361937432377,True,0.40766968306220214,True,"['low', 'high', 'low', 'high', 'low', 'high']",low,
,,188,3,001,31,m,r,test,,2,4,8,0.40766968306220214,,1,False,0.9948334998916835,False,img_A,img_A,,7.564735664735817,1369.217155317183,362.75675393075,1380,[np.int64(1023)],,,,,,high,0.40766968306220214,5,hot_chocolate_07s,memory_stick_05s,13,23,33,41,3,001,31,m,r,0.21144361937432377,True,0.40766968306220214,True,"['low', 'high', 'low', 'high', 'low', 'high']",low,
,,189,3,001,31,m,r,test,,2,4,9,0.40766968306220214,,1,False,1.271802500123158,False,img_B,img_B,,7.724770149673936,1398.1833970909825,390.03333306954187,1551,[np.int64(966)],,,,,,high,0.40766968306220214,3,electric_chair_09s,saltshaker_07s,13,23,33,41,3,001,31,m,r,0.21144361937432377,True,0.40766968306220214,True,"['low', 'high', 'low', 'high', 'low', 'high']",low,
,,190,3,001,31,m,r,test,,2,4,10,0.40766968306220214,,1,False,1.0971898999996483,False,img_A,img_A,,5.381375303434502,974.0289299216448,392.18242243467756,305,[np.int64(731)],,,,,,high,0.40766968306220214,5,cat_01b,clipper2_05s,13,23,33,41,3,001,31,m,r,0.21144361937432377,True,0.40766968306220214,True,"['low', 'high', 'low', 'high', 'low', 'high']",low,
,,191,3,001,31,m,r,test,,2,4,11,0.40766968306220214,,1,False,0.9815525999292731,False,img_A,img_A,,6.8496930107101806,1239.7944349385427,262.71005167682574,126,[np.int64(1156)],,,,,,high,0.40766968306220214,3,footprint_11s,bowtie_14s,13,23,33,41,3,001,31,m,r,0.21144361937432377,True,0.40766968306220214,True,"['low', 'high', 'low', 'high', 'low', 'high']",low,
,,192,3,001,31,m,r,test,,2,4,12,0.40766968306220214,,1,False,0.8958340999670327,False,img_B,img_B,,5.313601944179844,961.7619518965517,464.1853235597102,231,[np.int64(975)],,,,,,high,0.40766968306220214,3,bunkbed_06s,undershirt_12s,13,23,33,41,3,001,31,m,r,0.21144361937432377,True,0.40766968306220214,True,"['low', 'high', 'low', 'high', 'low', 'high']",low,
,,193,3,001,31,m,r,test,,2,4,13,0.40766968306220214,,1,False,1.131455299910158,False,img_B,img_B,,8.139639675771019,1473.2747813145543,466.31033634265634,351,[np.int64(1151)],,,,,,high,0.40766968306220214,3,ham_10s,cream_cheese_07s,13,23,33,41,3,001,31,m,r,0.21144361937432377,True,0.40766968306220214,True,"['low', 'high', 'low', 'high', 'low', 'high']",low,
,,194,3,001,31,m,r,test,,2,4,14,0.40766968306220214,,1,False,1.0126968000549823,False,img_A,img_A,,7.054095713756873,1276.7913241899942,329.8827758444592,1052,[np.int64(992)],,,,,,high,0.40766968306220214,3,keyboard_07s,butter_14s,13,23,33,41,3,001,31,m,r,0.21144361937432377,True,0.40766968306220214,True,"['low', 'high', 'low', 'high', 'low', 'high']",low,
,,195,3,001,31,m,r,test,,2,4,15,0.40766968306220214,,1,False,1.1310801999643445,False,img_B,img_B,,6.1809873002764855,1118.7587013500438,359.01357022313715,1596,[np.int64(1369)],,,,,,high,0.40766968306220214,4,diamond_14s,cheesecake_11s,13,23,33,41,3,001,31,m,r,0.21144361937432377,True,0.40766968306220214,True,"['low', 'high', 'low', 'high', 'low', 'high']",low,
,,196,3,001,31,m,r,test,,2,4,16,0.40766968306220214,,1,False,0.9614448000211269,False,img_A,img_A,,4.352181775292481,787.744901327939,216.75918038954512,970,[np.int64(427)],,,,,,high,0.40766968306220214,4,squeegee_10s,headset_03s,13,23,33,41,3,001,31,m,r,0.21144361937432377,True,0.40766968306220214,True,"['low', 'high', 'low', 'high', 'low', 'high']",low,
,,197,3,001,31,m,r,test,,2,4,17,0.40766968306220214,,1,False,0.6446177000179887,False,img_A,img_A,,6.395783923279423,1157.6368901135756,363.9955484221371,1460,[np.int64(535)],,,,,,high,0.40766968306220214,4,cheese_05n,grapefruit_09s,13,23,33,41,3,001,31,m,r,0.21144361937432377,True,0.40766968306220214,True,"['low', 'high', 'low', 'high', 'low', 'high']",low,
,,198,3,001,31,m,r,test,,2,4,18,0.40766968306220214,,1,False,1.095560799818486,False,img_B,img_B,,3.7111045910020763,671.7099309713758,339.197666300514,1571,[np.int64(689)],,,,,,high,0.40766968306220214,5,robot_01b,sponge_14s,13,23,33,41,3,001,31,m,r,0.21144361937432377,True,0.40766968306220214,True,"['low', 'high', 'low', 'high', 'low', 'high']",low,
,,199,3,001,31,m,r,test,,2,4,19,0.40766968306220214,,0,False,0.8141193999908864,False,img_B,img_A,,5.622189762438356,1017.6163470013424,285.33653343718595,1438,[np.int64(355)],,,,,,high,0.40766968306220214,2,lighter_08s,headband_09s,13,23,33,42,3,001,31,m,r,0.21144361937432377,True,0.40766968306220214,True,"['low', 'high', 'low', 'high', 'low', 'high']",low,
,,200,3,001,31,m,r,test,,2,4,20,0.40766968306220214,,1,False,0.9118234000634402,False,img_B,img_B,,5.591126021084181,1011.9938098162368,355.46344025701404,820,[np.int64(103)],,,,,,high,0.40766968306220214,4,bubble_wrap_11s,pocket_01b,13,23,33,41,3,001,31,m,r,0.21144361937432377,True,0.40766968306220214,True,"['low', 'high', 'low', 'high', 'low', 'high']",low,
,,201,3,001,31,m,r,test,,2,5,1,0.21144361937432377,,0,False,1.0486106998287141,False,img_B,img_A,,2.8920825510868613,523.4669417467219,418.72134990238857,650,[np.int64(638)],,,,,,low,0.21144361937432377,2,macaroni_11s,toilet_14n,11,21,31,42,3,001,31,m,r,0.21144361937432377,True,0.40766968306220214,True,"['low', 'high', 'low', 'high', 'low', 'high']",low,
,,202,3,001,31,m,r,test,,2,5,2,0.21144361937432377,,1,False,1.1605822001583874,False,img_A,img_A,,3.0118849331658546,545.1511729030196,412.1793216657782,1209,[np.int64(649)],,,,,,low,0.21144361937432377,3,ice_cream_08s,wooden_leg_02s,11,21,31,41,3,001,31,m,r,0.21144361937432377,True,0.40766968306220214,True,"['low', 'high', 'low', 'high', 'low', 'high']",low,
,,203,3,001,31,m,r,test,,2,5,3,0.21144361937432377,,1,False,1.0236806001048535,False,img_A,img_A,,5.7073504452652974,1033.0304305930188,337.5343189939593,1543,[np.int64(485)],,,,,,low,0.21144361937432377,1,peppermint_10s,cookie_cutter_02s,11,21,31,41,3,001,31,m,r,0.21144361937432377,True,0.40766968306220214,True,"['low', 'high', 'low', 'high', 'low', 'high']",low,
,,204,3,001,31,m,r,test,,2,5,4,0.21144361937432377,,0,False,1.1810582999605685,False,img_A,img_B,,4.429535392351309,801.7459060155869,379.92088348754413,959,[np.int64(889)],,,,,,low,0.21144361937432377,2,target_14s,praying_mantis_20s,11,21,31,42,3,001,31,m,r,0.21144361937432377,True,0.40766968306220214,True,"['low', 'high', 'low', 'high', 'low', 'high']",low,
,,205,3,001,31,m,r,test,,2,5,5,0.21144361937432377,,1,False,1.1444987999275327,False,img_A,img_A,,2.6066742651719728,471.80804199612703,193.6447280942088,237,[np.int64(1243)],,,,,,low,0.21144361937432377,2,salami_08s,badge_07s,11,21,31,41,3,001,31,m,r,0.21144361937432377,True,0.40766968306220214,True,"['low', 'high', 'low', 'high', 'low', 'high']",low,
,,206,3,001,31,m,r,test,,2,5,6,0.21144361937432377,,1,False,1.460913899820298,False,img_B,img_B,,5.140691735255601,930.4652040812637,242.70708566596002,1074,[np.int64(538)],,,,,,low,0.21144361937432377,3,grater_03s,duster_07s,11,21,31,41,3,001,31,m,r,0.21144361937432377,True,0.40766968306220214,True,"['low', 'high', 'low', 'high', 'low', 'high']",low,
,,207,3,001,31,m,r,test,,2,5,7,0.21144361937432377,,1,False,0.8931978000327945,False,img_A,img_A,,3.2590978095306355,589.896703525045,342.81405537914196,1352,[np.int64(1256)],,,,,,low,0.21144361937432377,2,jumpsuit_07s,banana_06s,11,21,31,41,3,001,31,m,r,0.21144361937432377,True,0.40766968306220214,True,"['low', 'high', 'low', 'high', 'low', 'high']",low,
,,208,3,001,31,m,r,test,,2,5,8,0.21144361937432377,,0,False,0.9136621998623013,False,img_A,img_B,,1.7396838444691436,314.882775848915,260.63218636206096,567,[np.int64(381)],,,,,,low,0.21144361937432377,1,doorknocker_26s,pumpkin_16s,11,21,31,42,3,001,31,m,r,0.21144361937432377,True,0.40766968306220214,True,"['low', 'high', 'low', 'high', 'low', 'high']",low,
,,209,3,001,31,m,r,test,,2,5,9,0.21144361937432377,,1,False,1.263679400086403,False,img_B,img_B,,3.3028143772449687,597.8094022813393,318.5651188115875,290,[np.int64(726)],,,,,,low,0.21144361937432377,2,dolphin_09n,hamster_07s,11,21,31,41,3,001,31,m,r,0.21144361937432377,True,0.40766968306220214,True,"['low', 'high', 'low', 'high', 'low', 'high']",low,
,,210,3,001,31,m,r,test,,2,5,10,0.21144361937432377,,1,False,1.8965737000107765,False,img_A,img_A,,5.147497834896273,931.6971081162254,331.4061300192595,788,[np.int64(139)],,,,,,low,0.21144361937432377,1,sequin_06s,pickle_13s,11,21,31,41,3,001,31,m,r,0.21144361937432377,True,0.40766968306220214,True,"['low', 'high', 'low', 'high', 'low', 'high']",low,
,,211,3,001,31,m,r,test,,2,5,11,0.21144361937432377,,1,False,1.6779687001835555,False,img_A,img_A,,1.5937597115139115,288.47050778401797,396.5341822439975,174,[np.int64(1429)],,,,,,low,0.21144361937432377,1,bowling_ball_01b,paint_10s,11,21,31,41,3,001,31,m,r,0.21144361937432377,True,0.40766968306220214,True,"['low', 'high', 'low', 'high', 'low', 'high']",low,
,,212,3,001,31,m,r,test,,2,5,12,0.21144361937432377,,1,False,1.0793641000054777,False,img_B,img_B,,4.626880795178078,837.4654239272321,304.1288646381204,320,[np.int64(323)],,,,,,low,0.21144361937432377,3,gyro_07s,gearshift_03n,11,21,31,41,3,001,31,m,r,0.21144361937432377,True,0.40766968306220214,True,"['low', 'high', 'low', 'high', 'low', 'high']",low,
,,213,3,001,31,m,r,test,,2,5,13,0.21144361937432377,,1,False,0.945544500136748,False,img_A,img_A,,1.1257054915120137,203.7526939636745,217.17882542442314,357,[np.int64(742)],,,,,,low,0.21144361937432377,1,wetsuit_03s,donut_02s,11,21,31,41,3,001,31,m,r,0.21144361937432377,True,0.40766968306220214,True,"['low', 'high', 'low', 'high', 'low', 'high']",low,
,,214,3,001,31,m,r,test,,2,5,14,0.21144361937432377,,1,False,1.0260180998593569,False,img_A,img_A,,1.801279082491707,326.031513930999,385.26350788265364,722,[np.int64(6)],,,,,,low,0.21144361937432377,2,pants_03s,chick_06s,11,21,31,41,3,001,31,m,r,0.21144361937432377,True,0.40766968306220214,True,"['low', 'high', 'low', 'high', 'low', 'high']",low,
,,215,3,001,31,m,r,test,,2,5,15,0.21144361937432377,,1,False,1.5650920998305082,False,img_A,img_A,,0.6684597040927246,120.99120644078315,478.72347316804075,840,[np.int64(311)],,,,,,low,0.21144361937432377,2,kazoo_08s,beanbag_16s,11,21,31,41,3,001,31,m,r,0.21144361937432377,True,0.40766968306220214,True,"['low', 'high', 'low', 'high', 'low', 'high']",low,
,,216,3,001,31,m,r,test,,2,5,16,0.21144361937432377,,1,False,1.2925684999208897,False,img_A,img_A,,3.882098142827696,702.659763851813,394.64024752211606,603,[np.int64(319)],,,,,,low,0.21144361937432377,2,turf_04s,parfait_20s,11,21,31,41,3,001,31,m,r,0.21144361937432377,True,0.40766968306220214,True,"['low', 'high', 'low', 'high', 'low', 'high']",low,
,,217,3,001,31,m,r,test,,2,5,17,0.21144361937432377,,0,False,1.446392900077626,False,img_A,img_B,,2.850183799293895,515.883267672195,386.9795488810124,1470,[np.int64(1037)],,,,,,low,0.21144361937432377,2,boa_02s,garlic_05s,11,21,31,42,3,001,31,m,r,0.21144361937432377,True,0.40766968306220214,True,"['low', 'high', 'low', 'high', 'low', 'high']",low,
,,218,3,001,31,m,r,test,,2,5,18,0.21144361937432377,,1,False,1.0824204999953508,False,img_A,img_A,,4.624166030389767,836.9740515005478,420.0281334969097,614,[np.int64(49)],,,,,,low,0.21144361937432377,3,jam_13s,punching_bag_12s,11,21,31,41,3,001,31,m,r,0.21144361937432377,True,0.40766968306220214,True,"['low', 'high', 'low', 'high', 'low', 'high']",low,
,,219,3,001,31,m,r,test,,2,5,19,0.21144361937432377,,1,False,1.2964302999898791,False,img_B,img_B,,4.008388428549486,725.518305567457,433.6066967933984,1500,[np.int64(1406)],,,,,,low,0.21144361937432377,2,vacuum_11s,iceskate_14s,11,21,31,41,3,001,31,m,r,0.21144361937432377,True,0.40766968306220214,True,"['low', 'high', 'low', 'high', 'low', 'high']",low,
,,220,3,001,31,m,r,test,,2,5,20,0.21144361937432377,,1,False,1.3623258001171052,False,img_B,img_B,,3.5765838369978766,647.3616744966157,424.30639865325554,1510,[np.int64(805)],,,,,,low,0.21144361937432377,2,puppy_06s,coin_03s,11,21,31,41,3,001,31,m,r,0.21144361937432377,True,0.40766968306220214,True,"['low', 'high', 'low', 'high', 'low', 'high']",low,
,,221,3,001,31,m,r,test,,2,6,1,0.40766968306220214,,1,False,1.3981129999738187,False,img_B,img_B,,6.119606480997066,1107.648773060469,334.6890234639857,1141,[np.int64(75)],,,,,,high,0.40766968306220214,5,suit_06s,cigarette_09s,13,23,33,41,3,001,31,m,r,0.21144361937432377,True,0.40766968306220214,True,"['low', 'high', 'low', 'high', 'low', 'high']",low,
,,222,3,001,31,m,r,test,,2,6,2,0.40766968306220214,,1,False,1.0435925000347197,False,img_B,img_B,,10.526191279525253,1905.2406215940707,261.72069624424716,857,[np.int64(275)],,,,,,high,0.40766968306220214,5,shears_04s,air_mattress_03s,13,23,33,41,3,001,31,m,r,0.21144361937432377,True,0.40766968306220214,True,"['low', 'high', 'low', 'high', 'low', 'high']",low,
,,223,3,001,31,m,r,test,,2,6,3,0.40766968306220214,,1,False,1.144564000191167,False,img_A,img_A,,8.515015243006811,1541.2177589842327,248.67788617104853,1088,[np.int64(83)],,,,,,high,0.40766968306220214,4,zebra_11s,waffle_06s,13,23,33,41,3,001,31,m,r,0.21144361937432377,True,0.40766968306220214,True,"['low', 'high', 'low', 'high', 'low', 'high']",low,
,,224,3,001,31,m,r,test,,2,6,4,0.40766968306220214,,1,False,1.0110397001262754,False,img_A,img_A,,6.8114913954490754,1232.8799425762827,143.06597288848718,1409,[np.int64(1325)],,,,,,high,0.40766968306220214,5,pencil_sharpener_11s,bean_04s,13,23,33,41,3,001,31,m,r,0.21144361937432377,True,0.40766968306220214,True,"['low', 'high', 'low', 'high', 'low', 'high']",low,
,,225,3,001,31,m,r,test,,2,6,5,0.40766968306220214,,1,False,1.19283779989928,False,img_A,img_A,,9.37706141730128,1697.2481165315317,306.31918055531185,312,[np.int64(1215)],,,,,,high,0.40766968306220214,4,asparagus_07s,brush_04s,13,23,33,41,3,001,31,m,r,0.21144361937432377,True,0.40766968306220214,True,"['low', 'high', 'low', 'high', 'low', 'high']",low,
,,226,3,001,31,m,r,test,,2,6,6,0.40766968306220214,,1,False,0.8941416000016034,False,img_A,img_A,,5.948206351185763,1076.625349564623,400.4996387240985,1167,[np.int64(1390)],,,,,,high,0.40766968306220214,5,bikini_09s,worm_06s,13,23,33,41,3,001,31,m,r,0.21144361937432377,True,0.40766968306220214,True,"['low', 'high', 'low', 'high', 'low', 'high']",low,
,,227,3,001,31,m,r,test,,2,6,7,0.40766968306220214,,1,False,1.11107790004462,False,img_A,img_A,,4.366253945942926,790.2919642156696,284.2928645934236,753,[np.int64(488)],,,,,,high,0.40766968306220214,5,step_stool_11s,cashew_02s,13,23,33,41,3,001,31,m,r,0.21144361937432377,True,0.40766968306220214,True,"['low', 'high', 'low', 'high', 'low', 'high']",low,
,,228,3,001,31,m,r,test,,2,6,8,0.40766968306220214,,1,False,0.9465695000253618,False,img_B,img_B,,5.5723574653561165,1008.596701229457,439.5744354855025,1547,[np.int64(1219)],,,,,,high,0.40766968306220214,5,crutch_01b,container_04s,13,23,33,41,3,001,31,m,r,0.21144361937432377,True,0.40766968306220214,True,"['low', 'high', 'low', 'high', 'low', 'high']",low,
,,229,3,001,31,m,r,test,,2,6,9,0.40766968306220214,,1,False,1.0309117001015693,False,img_B,img_B,,5.493326407297344,994.2920797208193,275.9206537552867,22,[np.int64(1464)],,,,,,high,0.40766968306220214,4,celery_04s,pajamas_13s,13,23,33,41,3,001,31,m,r,0.21144361937432377,True,0.40766968306220214,True,"['low', 'high', 'low', 'high', 'low', 'high']",low,
,,230,3,001,31,m,r,test,,2,6,10,0.40766968306220214,,1,False,1.0116969998925924,False,img_B,img_B,,5.704482606432528,1032.5113517642876,283.02260295030334,1309,[np.int64(184)],,,,,,high,0.40766968306220214,4,juicer1_06s,pet_food_04s,13,23,33,41,3,001,31,m,r,0.21144361937432377,True,0.40766968306220214,True,"['low', 'high', 'low', 'high', 'low', 'high']",low,
,,231,3,001,31,m,r,test,,2,6,11,0.40766968306220214,,1,False,1.010495699942112,False,img_A,img_A,,5.528123110312687,1000.5902829665963,378.9462396800312,1413,[np.int64(1232)],,,,,,high,0.40766968306220214,4,mouthpiece_01s,paintbrush_12s,13,23,33,41,3,001,31,m,r,0.21144361937432377,True,0.40766968306220214,True,"['low', 'high', 'low', 'high', 'low', 'high']",low,
,,232,3,001,31,m,r,test,,2,6,12,0.40766968306220214,,1,False,1.0306353999767452,False,img_A,img_A,,6.049418044141631,1094.9446659896353,470.6741236045132,832,[np.int64(15)],,,,,,high,0.40766968306220214,4,ginger_03s,pepper2_07s,13,23,33,41,3,001,31,m,r,0.21144361937432377,True,0.40766968306220214,True,"['low', 'high', 'low', 'high', 'low', 'high']",low,
,,233,3,001,31,m,r,test,,2,6,13,0.40766968306220214,,1,False,1.0126875001005828,False,img_A,img_A,,8.942281307624416,1618.5529166800193,376.02600530254824,612,[np.int64(754)],,,,,,high,0.40766968306220214,4,trap_03s,raccoon_06n,13,23,33,41,3,001,31,m,r,0.21144361937432377,True,0.40766968306220214,True,"['low', 'high', 'low', 'high', 'low', 'high']",low,
,,234,3,001,31,m,r,test,,2,6,14,0.40766968306220214,,1,False,0.9784289000090212,False,img_B,img_B,,5.611977211556996,1015.7678752918164,429.7114382594601,155,[np.int64(1535)],,,,,,high,0.40766968306220214,5,chinchilla_13n,peanut_butter_07s,13,23,33,41,3,001,31,m,r,0.21144361937432377,True,0.40766968306220214,True,"['low', 'high', 'low', 'high', 'low', 'high']",low,
,,235,3,001,31,m,r,test,,2,6,15,0.40766968306220214,,1,False,0.9921365999616683,False,img_B,img_B,,6.276354372567493,1136.0201414347162,366.1207306233789,743,[np.int64(597)],,,,,,high,0.40766968306220214,5,float_08s,dragonfly_09s,13,23,33,41,3,001,31,m,r,0.21144361937432377,True,0.40766968306220214,True,"['low', 'high', 'low', 'high', 'low', 'high']",low,
,,236,3,001,31,m,r,test,,2,6,16,0.40766968306220214,,1,False,1.1965413000434637,False,img_B,img_B,,7.162980229005262,1296.4994214499525,290.12882277244927,1504,[np.int64(760)],,,,,,high,0.40766968306220214,3,canoe_06s,giraffe_07s,13,23,33,41,3,001,31,m,r,0.21144361937432377,True,0.40766968306220214,True,"['low', 'high', 'low', 'high', 'low', 'high']",low,
,,237,3,001,31,m,r,test,,2,6,17,0.40766968306220214,,1,False,0.9117868999019265,False,img_B,img_B,,7.109977456318233,1286.9059195936002,322.3047985724581,1559,[np.int64(1503)],,,,,,high,0.40766968306220214,5,cross_14s,egg_roll_07n,13,23,33,41,3,001,31,m,r,0.21144361937432377,True,0.40766968306220214,True,"['low', 'high', 'low', 'high', 'low', 'high']",low,
,,238,3,001,31,m,r,test,,2,6,18,0.40766968306220214,,1,False,1.0138737000524998,False,img_A,img_A,,7.219587893205608,1306.745408670215,443.16539548393655,1242,[np.int64(147)],,,,,,high,0.40766968306220214,3,pallet_10s,bedpan_13s,13,23,33,41,3,001,31,m,r,0.21144361937432377,True,0.40766968306220214,True,"['low', 'high', 'low', 'high', 'low', 'high']",low,
,,239,3,001,31,m,r,test,,2,6,19,0.40766968306220214,,1,False,1.04565059999004,False,img_A,img_A,,8.478211157626871,1534.5562195304637,277.68677437395814,71,[np.int64(954)],,,,,,high,0.40766968306220214,3,pill_06s,lab_coat_04s,13,23,33,41,3,001,31,m,r,0.21144361937432377,True,0.40766968306220214,True,"['low', 'high', 'low', 'high', 'low', 'high']",low,
,,240,3,001,31,m,r,test,,2,6,20,0.40766968306220214,,1,False,1.3134783999994397,False,img_A,img_A,,8.209447591925505,1485.9100141385165,279.5953854469391,8,[np.int64(1565)],,,,,,high,0.40766968306220214,5,taco_05s,hairbrush_12s,13,23,33,41,3,001,31,m,r,0.21144361937432377,True,0.40766968306220214,True,"['low', 'high', 'low', 'high', 'low', 'high']",low,
