thisRow.t,notes,overall_trial_num,participant,session,age,gender,handedness,phase,calib_target,n_shapes,block_num,trial_in_block,prop_used,stimulus_logit,detection_accuracy,is_timeout,rt_choice,early_response,true_controlled,response_controlled,quest_alpha_sd,mean_evidence,sum_evidence,var_evidence,target_snippet_id,distractor_snippet_ids,quest_alpha_mean,quest_beta_mean,quest_beta_sd,quest_lambda_mean,quest_lambda_sd,control_condition,threshold_75,agency_rating,img_A_name,img_B_name,trigger_stim_onset,trigger_motion_start,trigger_resp_onset,trigger_resp_val,participant,session,age,gender,handedness,quest_prop_low,quest_low_converged,quest_prop_high,quest_high_converged,miniblock_order,starts_with,
,,1,1,001,20,f,r,calibration,0.55,2,0,1,0.347354013008391,-0.6306903787402434,1,False,1.9161520000780001,False,dot,dot,0.9585022178944526,2.269089111980544,406.1669510445174,65.73312261616117,946,[np.int64(1373)],-0.6105307855798056,3.2449087058269095,2.055422663760532,0.0257181206205907,0.02148187862845949,,,,,,,,,,1,001,20,f,r,,,,,,,
,,2,1,001,20,f,r,calibration,0.55,2,0,2,0.347354013008391,-0.6306903787402434,1,False,0.7510067999828607,False,square,square,0.9261401199953351,4.536704438789259,821.143503420856,131.68007678963602,10,[np.int64(722)],-0.8088180781535858,3.249478062754128,2.0577708660113303,0.025403727978280513,0.021413000928689013,,,,,,,,,,1,001,20,f,r,,,,,,,
,,3,1,001,20,f,r,calibration,0.55,2,0,3,0.40766968306220214,-0.37360720091511007,0,False,1.7812012999784201,False,dot,square,0.8577065355739377,2.6640337761536057,482.19011348380263,53.975302698608814,766,[np.int64(663)],-0.11035630232260359,3.118646214381694,2.0043000006396867,0.02701312168069854,0.021708242636034276,,,,,,,,,,1,001,20,f,r,,,,,,,
,,4,1,001,20,f,r,calibration,0.55,2,0,4,0.40766968306220214,-0.37360720091511007,0,False,1.2004915999714285,False,dot,square,0.7120014164022872,4.504022690450275,815.2281069714996,125.55780690987774,238,[np.int64(923)],0.27487334930366863,3.1671149997730623,2.023744802639669,0.027632467193165727,0.021802787037637685,,,,,,,,,,1,001,20,f,r,,,,,,,
,,5,1,001,20,f,r,calibration,0.55,2,0,5,0.5981210736084265,0.3976423325602886,0,False,2.619438000023365,False,dot,square,0.6302784706902703,2.4250617724847943,438.93618081974773,35.34744709617386,1055,[np.int64(1064)],0.6707825544150523,3.112253792740494,1.9963864560344846,0.02873989261652023,0.02193632707942558,,,,,,,,,,1,001,20,f,r,,,,,,,
,,6,1,001,20,f,r,calibration,0.55,2,0,6,0.6580745541515514,0.654725510385422,1,False,1.0530582000501454,False,square,square,0.622732854026164,4.390323704160503,794.648590453051,65.51756451130457,793,[np.int64(560)],0.5620203504337069,3.1117817374814467,1.996666249532659,0.028415659196309204,0.021898450884693943,,,,,,,,,,1,001,20,f,r,,,,,,,
,,7,1,001,20,f,r,calibration,0.55,2,0,7,0.6580745541515514,0.654725510385422,1,False,0.9826491000130773,False,dot,dot,0.6078477799428001,15.114588323488734,2735.740486551461,215.4695543461708,820,[np.int64(1087)],0.4597274530678884,3.1266225895183797,2.004327904518665,0.028071157649152818,0.021854304980976194,,,,,,,,,,1,001,20,f,r,,,,,,,
,,8,1,001,20,f,r,calibration,0.55,2,0,8,0.6580745541515514,0.654725510385422,1,False,0.7618388999253511,False,square,square,0.5880907708645916,3.0327873607096687,548.93451228845,38.37299857408707,344,[np.int64(678)],0.36635581253467964,3.1551667807721375,2.0183624403326945,0.027709139879566136,0.021803577576171195,,,,,,,,,,1,001,20,f,r,,,,,,,
,,9,1,001,20,f,r,calibration,0.55,2,0,9,0.6580745541515514,0.654725510385422,1,False,0.9299522000364959,False,dot,dot,0.5660797226651764,8.640864066448195,1563.9963960271232,148.00949825388582,929,[np.int64(334)],0.28312583448131956,3.195590916864555,2.0375291026481945,0.027332485541943785,0.021746073111153102,,,,,,,,,,1,001,20,f,r,,,,,,,
,,10,1,001,20,f,r,calibration,0.55,2,0,10,0.5981210736084265,0.3976423325602886,1,False,0.8729018999729306,False,square,square,0.5518112775377407,10.489527278478283,1898.6044374045694,138.24264176204545,643,[np.int64(1043)],0.19704892201416135,3.215690643977553,2.0473118281259235,0.026987516198707477,0.021689266432710463,,,,,,,,,,1,001,20,f,r,,,,,,,
,,11,1,001,20,f,r,calibration,0.55,2,0,11,0.5981210736084265,0.3976423325602886,0,False,0.9377606000052765,False,square,dot,0.5142882109547344,4.044073516668119,731.9773065169295,76.02589222007053,675,[np.int64(1340)],nan,nan,nan,nan,nan,,,,,,,,,,1,001,20,f,r,,,,,,,
,,12,1,001,20,f,r,calibration,0.55,2,0,12,0.7133701336716126,0.9118086882105548,1,False,0.982289099949412,False,dot,dot,0.49067669395191904,6.8021599394004175,1231.1909490314756,128.41622814962884,277,[np.int64(176)],nan,nan,nan,nan,nan,,,,,,,,,,1,001,20,f,r,,,,,,,
,,13,1,001,20,f,r,calibration,0.55,2,0,13,0.6580745541515514,0.654725510385422,0,False,0.6443024000618607,False,dot,square,0.479149296981948,12.185956028722163,2205.6580411987115,172.91900595888058,864,[np.int64(253)],nan,nan,nan,nan,nan,,,,,,,,,,1,001,20,f,r,,,,,,,
,,14,1,001,20,f,r,calibration,0.55,2,0,14,0.7133701336716126,0.9118086882105548,1,False,0.8322105999104679,False,square,square,0.45930121718669725,8.40579176071697,1521.4483086897715,88.2078647774096,1217,[np.int64(1501)],nan,nan,nan,nan,nan,,,,,,,,,,1,001,20,f,r,,,,,,,
,,15,1,001,20,f,r,calibration,0.55,2,0,15,0.7133701336716126,0.9118086882105548,1,False,0.6303993000183254,False,square,square,0.440124974032642,17.100742217357737,3095.2343413417507,176.37467178096867,1292,[np.int64(72)],nan,nan,nan,nan,nan,,,,,,,,,,1,001,20,f,r,,,,,,,
,,16,1,001,20,f,r,calibration,0.55,2,0,16,0.7133701336716126,0.9118086882105548,1,False,0.8842409999342635,False,square,square,0.42254354256610377,16.08154378372189,2910.759424853662,209.3878232393348,1567,[np.int64(777)],nan,nan,nan,nan,nan,,,,,,,,,,1,001,20,f,r,,,,,,,
,,17,1,001,20,f,r,calibration,0.55,2,0,17,0.6580745541515514,0.654725510385422,1,False,0.6036323000444099,False,square,square,0.4113194290970818,14.435468884750886,2612.8198681399103,191.42124212436863,179,[np.int64(1348)],nan,nan,nan,nan,nan,,,,,,,,,,1,001,20,f,r,,,,,,,
,,18,1,001,20,f,r,calibration,0.55,2,0,18,0.6580745541515514,0.654725510385422,0,False,0.5531986999558285,False,dot,square,0.39923144531206656,7.582528157987866,1372.4375965958038,110.2190589085652,1409,[np.int64(549)],nan,nan,nan,nan,nan,,,,,,,,,,1,001,20,f,r,,,,,,,
,,19,1,001,20,f,r,calibration,0.55,2,0,19,0.7133701336716126,0.9118086882105548,1,False,1.147882999968715,False,square,square,0.38342089314076594,3.546405300383343,641.8993593693851,55.02997954376033,1548,[np.int64(1237)],nan,nan,nan,nan,nan,,,,,,,,,,1,001,20,f,r,,,,,,,
,,20,1,001,20,f,r,calibration,0.55,2,0,20,0.7133701336716126,0.9118086882105548,1,False,0.7823302000761032,False,dot,dot,0.36935056979748837,16.41898560086263,2971.836393756136,213.18674906950415,323,[np.int64(1113)],0.5491550450606985,3.134316500223849,1.9857921269800298,0.028373030519190386,0.021846367719736803,,,,,,,,,,1,001,20,f,r,,,,,,,
,,21,1,001,20,f,r,calibration,0.55,2,0,21,0.6580745541515514,0.654725510385422,0,False,1.185831499984488,False,square,dot,0.3594847797891752,2.3453269210539474,422.15884578971054,52.57954349686672,1339,[np.int64(570)],nan,nan,nan,nan,nan,,,,,,,,,,1,001,20,f,r,,,,,,,
,,22,1,001,20,f,r,calibration,0.55,2,0,22,0.7133701336716126,0.9118086882105548,0,False,1.2162476000376046,False,square,dot,0.3745350087124637,3.896153490905851,705.2037818539591,83.85772448294156,941,[np.int64(1461)],nan,nan,nan,nan,nan,,,,,,,,,,1,001,20,f,r,,,,,,,
,,23,1,001,20,f,r,calibration,0.55,2,0,23,0.7629446568996856,1.1688918660356877,1,False,0.8523428000044078,False,dot,dot,0.3569732949120335,10.415430896388145,1885.1929922462543,151.54692465627812,1077,[np.int64(22)],nan,nan,nan,nan,nan,,,,,,,,,,1,001,20,f,r,,,,,,,
,,24,1,001,20,f,r,calibration,0.55,2,0,24,0.7629446568996856,1.1688918660356877,1,False,0.784847000031732,False,square,square,0.3410093201445476,11.291934755494092,2043.8401907444306,150.83154889617495,44,[np.int64(618)],nan,nan,nan,nan,nan,,,,,,,,,,1,001,20,f,r,,,,,,,
,,25,1,001,20,f,r,calibration,0.55,2,0,25,0.7629446568996856,1.1688918660356877,1,False,0.87043300003279,False,square,square,0.32687207896416803,10.807977780248425,1956.2439782249648,194.29616550739078,1448,[np.int64(552)],nan,nan,nan,nan,nan,,,,,,,,,,1,001,20,f,r,,,,,,,
,,26,1,001,20,f,r,calibration,0.55,2,0,26,0.7133701336716126,0.9118086882105548,1,False,0.9033434999873862,False,dot,dot,0.31622215306071455,5.873124101737655,1063.0354624145157,109.61509098892773,602,[np.int64(1000)],nan,nan,nan,nan,nan,,,,,,,,,,1,001,20,f,r,,,,,,,
,,27,1,001,20,f,r,calibration,0.55,2,0,27,0.7133701336716126,0.9118086882105548,1,False,0.7195429999846965,False,square,square,0.30658960998338386,8.066284347593728,1459.9974669144647,120.64263053958786,979,[np.int64(1307)],nan,nan,nan,nan,nan,,,,,,,,,,1,001,20,f,r,,,,,,,
,,28,1,001,20,f,r,calibration,0.55,2,0,28,0.7133701336716126,0.9118086882105548,1,False,0.8359376000007614,False,square,square,0.2980484354117336,5.577769514081389,1009.5762820487314,78.40692483918689,1594,[np.int64(372)],nan,nan,nan,nan,nan,,,,,,,,,,1,001,20,f,r,,,,,,,
,,29,1,001,20,f,r,calibration,0.55,2,0,29,0.7133701336716126,0.9118086882105548,1,False,0.6710738999536261,False,square,square,0.2906026311984133,10.916124671070861,1975.818565463826,166.61758056856544,1560,[np.int64(1399)],nan,nan,nan,nan,nan,,,,,,,,,,1,001,20,f,r,,,,,,,
,,30,1,001,20,f,r,calibration,0.55,2,0,30,0.6580745541515514,0.654725510385422,1,False,1.586180999991484,False,dot,dot,0.28786053367537584,11.647126673225923,2108.1299278538922,185.44179349306378,1376,[np.int64(1342)],0.5865959257191796,3.2670101153863356,2.034615599375526,0.027913331460018072,0.021756828964945577,,,,,,,,,,1,001,20,f,r,,,,,,,
,,31,1,001,20,f,r,calibration,0.55,2,0,31,0.6580745541515514,0.654725510385422,1,False,0.7025143000064418,False,square,square,0.28533486570485506,7.596780835550344,1375.0173312346124,123.61264092790954,629,[np.int64(776)],nan,nan,nan,nan,nan,,,,,,,,,,1,001,20,f,r,,,,,,,
,,32,1,001,20,f,r,calibration,0.55,2,0,32,0.6580745541515514,0.654725510385422,1,False,0.7370283999480307,False,square,square,0.2830167881585953,6.167990805072089,1116.406335718048,103.87801230723925,230,[np.int64(1091)],nan,nan,nan,nan,nan,,,,,,,,,,1,001,20,f,r,,,,,,,
,,33,1,001,20,f,r,calibration,0.55,2,0,33,0.6580745541515514,0.654725510385422,1,False,0.8712181000737473,False,dot,dot,0.28089354618183254,9.772775976008806,1768.872451657594,154.1443819662449,984,[np.int64(1035)],nan,nan,nan,nan,nan,,,,,,,,,,1,001,20,f,r,,,,,,,
,,34,1,001,20,f,r,calibration,0.55,2,0,34,0.6580745541515514,0.654725510385422,1,False,0.8524407999357209,False,dot,dot,0.2789507295954424,9.727371321460046,1760.6542091842684,186.93785129251597,217,[np.int64(115)],nan,nan,nan,nan,nan,,,,,,,,,,1,001,20,f,r,,,,,,,
,,35,1,001,20,f,r,calibration,0.55,2,0,35,0.6580745541515514,0.654725510385422,1,False,0.9543827000306919,False,square,square,0.2771738820738123,13.488940459801421,2441.4982232240573,212.548590503134,748,[np.int64(1093)],nan,nan,nan,nan,nan,,,,,,,,,,1,001,20,f,r,,,,,,,
,,36,1,001,20,f,r,calibration,0.55,2,0,36,0.5981210736084265,0.3976423325602886,0,False,1.4343224000185728,False,square,dot,0.2500423399009711,4.791844589527484,867.3238707044745,94.45861072114373,294,[np.int64(1317)],nan,nan,nan,nan,nan,,,,,,,,,,1,001,20,f,r,,,,,,,
,,37,1,001,20,f,r,calibration,0.55,2,0,37,0.6580745541515514,0.654725510385422,0,False,1.7297312000300735,False,dot,square,0.24046168682625507,9.059934464257635,1639.848138030632,160.68169112962445,627,[np.int64(172)],nan,nan,nan,nan,nan,,,,,,,,,,1,001,20,f,r,,,,,,,
,,38,1,001,20,f,r,calibration,0.55,2,0,38,0.6580745541515514,0.654725510385422,1,False,0.7854521999834105,False,dot,dot,0.23732803212583803,10.537531804533188,1907.293256620507,186.5563790472812,537,[np.int64(75)],nan,nan,nan,nan,nan,,,,,,,,,,1,001,20,f,r,,,,,,,
,,39,1,001,20,f,r,calibration,0.55,2,0,39,0.6580745541515514,0.654725510385422,0,False,1.1701331000076607,False,dot,square,0.23197675203021484,8.988263339788281,1626.8756645016788,156.30376284265785,1490,[np.int64(114)],nan,nan,nan,nan,nan,,,,,,,,,,1,001,20,f,r,,,,,,,
,,40,1,001,20,f,r,calibration,0.55,2,0,40,0.7133701336716126,0.9118086882105548,1,False,2.9956952000502497,False,square,square,0.22587089496506685,8.085830574034915,1463.5353339003198,152.1206290177241,1299,[np.int64(1269)],0.6405287070258585,3.3642168248976527,2.076437044054803,0.028504952113956056,0.021804389523612678,,,,,,,,,,1,001,20,f,r,,,,,,,
,,41,1,001,20,f,r,calibration,0.55,2,0,41,0.7133701336716126,0.9118086882105548,0,False,1.2474074999336153,False,dot,square,0.2342182728204147,6.282645171064675,1137.1587759627062,113.40040503142261,1456,[np.int64(497)],nan,nan,nan,nan,nan,,,,,,,,,,1,001,20,f,r,,,,,,,
,,42,1,001,20,f,r,calibration,0.55,2,0,42,0.7133701336716126,0.9118086882105548,1,False,1.18023890000768,False,square,square,0.22761246113294245,2.1515409973278716,389.42892051634476,10.560500298711041,789,[np.int64(1122)],nan,nan,nan,nan,nan,,,,,,,,,,1,001,20,f,r,,,,,,,
,,43,1,001,20,f,r,calibration,0.55,2,0,43,0.7133701336716126,0.9118086882105548,1,False,3.747161699924618,False,dot,dot,0.22176829416129046,6.966987124463208,1261.0246695278406,115.27371505448755,7,[np.int64(1264)],nan,nan,nan,nan,nan,,,,,,,,,,1,001,20,f,r,,,,,,,
,,44,1,001,20,f,r,calibration,0.55,2,0,44,0.7133701336716126,0.9118086882105548,0,False,0.9523881999775767,False,square,dot,0.2298470640573158,10.589681127200663,1916.73228402332,132.01687839501182,1326,[np.int64(1154)],nan,nan,nan,nan,nan,,,,,,,,,,1,001,20,f,r,,,,,,,
,,45,1,001,20,f,r,calibration,0.55,2,0,45,0.7133701336716126,0.9118086882105548,0,False,0.7166507999645546,False,dot,square,0.2402701157193206,2.8062662604859785,507.9341931479621,30.036689201981908,1407,[np.int64(969)],nan,nan,nan,nan,nan,,,,,,,,,,1,001,20,f,r,,,,,,,
,,46,1,001,20,f,r,calibration,0.55,2,0,46,0.7629446568996856,1.1688918660356877,1,False,1.1688083000481129,False,square,square,0.23214973174996967,6.391869097503547,1156.928306648142,141.30380105619324,1367,[np.int64(1289)],nan,nan,nan,nan,nan,,,,,,,,,,1,001,20,f,r,,,,,,,
,,47,1,001,20,f,r,calibration,0.55,2,0,47,0.7629446568996856,1.1688918660356877,1,False,1.165441400022246,False,square,square,0.22502211415776704,8.164485492243609,1477.7718740960931,112.5486012031886,1511,[np.int64(841)],nan,nan,nan,nan,nan,,,,,,,,,,1,001,20,f,r,,,,,,,
,,48,1,001,20,f,r,calibration,0.55,2,0,48,0.7133701336716126,0.9118086882105548,1,False,1.4887393999379128,False,dot,dot,0.21926264754778227,6.110014799525804,1105.9126787141706,141.1217099346338,85,[np.int64(1386)],nan,nan,nan,nan,nan,,,,,,,,,,1,001,20,f,r,,,,,,,
,,49,1,001,20,f,r,calibration,0.55,2,0,49,0.7133701336716126,0.9118086882105548,0,False,1.437948599923402,False,dot,square,0.22707271904849857,9.939544416129491,1799.057539319438,194.01299909632388,741,[np.int64(1322)],nan,nan,nan,nan,nan,,,,,,,,,,1,001,20,f,r,,,,,,,
,,50,1,001,20,f,r,calibration,0.55,2,0,50,0.7629446568996856,1.1688918660356877,0,False,1.4363205000991002,False,dot,square,0.245600829084845,7.160210777158651,1295.998150665716,166.24221728933642,446,[np.int64(996)],0.8878410945265756,2.408718083478046,1.3352365619078732,0.034418299818066544,0.021839344012374914,,,,,,,,,,1,001,20,f,r,,,,,,,
,,51,1,001,20,f,r,calibration,0.55,2,0,51,0.7629446568996856,1.1688918660356877,0,False,1.717001400073059,False,dot,square,0.26586294454838555,6.079646248178314,1100.4159709202747,73.97080619389959,1504,[np.int64(736)],nan,nan,nan,nan,nan,,,,,,,,,,1,001,20,f,r,,,,,,,
,,52,1,001,20,f,r,calibration,0.55,2,0,52,0.806273406195118,1.4259750438608214,1,False,1.6837106000166386,False,square,square,0.2564656614125961,11.807234934925017,2137.109523221428,210.5187019777792,1130,[np.int64(862)],nan,nan,nan,nan,nan,,,,,,,,,,1,001,20,f,r,,,,,,,
,,53,1,001,20,f,r,calibration,0.55,2,0,53,0.7629446568996856,1.1688918660356877,1,False,1.4330004000803456,False,square,square,0.24772225195848632,7.578210909970069,1371.6561747045826,123.48096513399564,1007,[np.int64(401)],nan,nan,nan,nan,nan,,,,,,,,,,1,001,20,f,r,,,,,,,
,,54,1,001,20,f,r,calibration,0.55,2,0,54,0.7629446568996856,1.1688918660356877,1,False,1.2145453999983147,False,square,square,0.23971615081742553,9.755961417142123,1765.8290165027242,104.69297340011492,1328,[np.int64(475)],nan,nan,nan,nan,nan,,,,,,,,,,1,001,20,f,r,,,,,,,
,,55,1,001,20,f,r,calibration,0.55,2,0,55,0.7629446568996856,1.1688918660356877,1,False,1.2667458999203518,False,square,square,0.23241938181914834,11.321793319253283,2049.244590784844,143.91278160112037,1473,[np.int64(33)],nan,nan,nan,nan,nan,,,,,,,,,,1,001,20,f,r,,,,,,,
,,56,1,001,20,f,r,calibration,0.55,2,0,56,0.7629446568996856,1.1688918660356877,1,False,1.2690402999287471,False,dot,dot,0.22579174984450553,7.464405698654207,1351.0574314564115,125.69086714931011,15,[np.int64(543)],nan,nan,nan,nan,nan,,,,,,,,,,1,001,20,f,r,,,,,,,
,,57,1,001,20,f,r,calibration,0.55,2,0,57,0.7629446568996856,1.1688918660356877,1,False,1.168642400065437,False,dot,dot,0.21978563683632604,6.707181445256617,1213.9998415914476,92.18716799502107,259,[np.int64(169)],nan,nan,nan,nan,nan,,,,,,,,,,1,001,20,f,r,,,,,,,
,,58,1,001,20,f,r,calibration,0.55,2,0,58,0.7629446568996856,1.1688918660356877,1,False,1.504080199985765,False,dot,dot,0.21434979625703107,9.737034092148635,1762.4031706789028,169.75095144373714,1479,[np.int64(1459)],nan,nan,nan,nan,nan,,,,,,,,,,1,001,20,f,r,,,,,,,
,,59,1,001,20,f,r,calibration,0.55,2,0,59,0.7629446568996856,1.1688918660356877,1,False,0.9878160000080243,False,dot,dot,0.2094322168050615,11.346752595042684,2053.762219702726,206.00617429149074,210,[np.int64(740)],nan,nan,nan,nan,nan,,,,,,,,,,1,001,20,f,r,,,,,,,
,,60,1,001,20,f,r,calibration,0.55,2,0,60,0.7629446568996856,1.1688918660356877,1,False,3.3511607999680564,False,square,square,0.20498217080728465,5.635782182933787,1020.0765751110155,123.58230810317838,567,[np.int64(660)],0.820287878613947,2.6267904967688134,1.4604673681040705,0.032476020582239355,0.021902404190438044,,,,,,,,,,1,001,20,f,r,,,,,,,
,,61,1,001,20,f,r,calibration,0.55,2,0,61,0.7133701336716126,0.9118086882105548,1,False,1.1694740999955684,False,square,square,0.20145727449550185,9.618634295108643,1740.9728074146644,176.69261231560566,995,[np.int64(960)],nan,nan,nan,nan,nan,,,,,,,,,,1,001,20,f,r,,,,,,,
,,62,1,001,20,f,r,calibration,0.55,2,0,62,0.7133701336716126,0.9118086882105548,1,False,1.1849380999337882,False,dot,dot,0.19817727729173118,9.71755334267767,1758.8771550246584,117.72207882345538,1558,[np.int64(753)],nan,nan,nan,nan,nan,,,,,,,,,,1,001,20,f,r,,,,,,,
,,63,1,001,20,f,r,calibration,0.85,2,-1,1,0.6580745541515514,0.654725510385422,1,False,1.2539979999419302,False,square,square,0.8033587196838967,9.979855293310088,1806.3538080891258,176.74522489085336,1545,[np.int64(1410)],0.8833033316116574,3.2168895046329116,2.0446371587020717,0.025760922364598603,0.021491052549208363,,,,,,,,,,1,001,20,f,r,0.44961696895924486,True,,,,,
,,64,1,001,20,f,r,calibration,0.85,2,-1,2,0.6580745541515514,0.654725510385422,1,False,1.7012197999283671,False,dot,dot,0.8209735017438585,9.32623246729505,1688.048076580404,195.92159146122614,1321,[np.int64(358)],0.7156328931575353,3.194450983866603,2.036615102758326,0.0254902720608932,0.021432449267560046,,,,,,,,,,1,001,20,f,r,0.44961696895924486,True,,,,,
,,65,1,001,20,f,r,calibration,0.85,2,-1,3,0.5981210736084265,0.3976423325602886,0,False,4.134653600049205,False,dot,square,0.6623656928766398,5.686070819772606,1029.1788183788417,91.91620875417307,771,[np.int64(1033)],1.0800921805047414,3.2444060948204925,2.0530444741593064,0.026046851323989845,0.021546969980313767,,,,,,,,,,1,001,20,f,r,0.44961696895924486,True,,,,,
,,66,1,001,20,f,r,calibration,0.85,2,-1,4,0.7133701336716126,0.9118086882105548,1,False,1.414460700005293,False,dot,dot,0.6709461435153861,8.11509078441988,1468.8314319799983,163.34404455203992,828,[np.int64(912)],0.952717436595906,3.224860148024316,2.04622573733193,0.02576566398577164,0.02148878887747399,,,,,,,,,,1,001,20,f,r,0.44961696895924486,True,,,,,
,,67,1,001,20,f,r,calibration,0.85,2,-1,5,0.7133701336716126,0.9118086882105548,1,False,1.3477909999201074,False,dot,dot,0.6656552638599842,10.05534520452075,1820.0174820182556,187.82144776906208,1538,[np.int64(312)],0.8274679931727568,3.2237860400016998,2.047416040362224,0.025459727343139622,0.021422327103497948,,,,,,,,,,1,001,20,f,r,0.44961696895924486,True,,,,,
,,68,1,001,20,f,r,calibration,0.85,2,-1,6,0.7133701336716126,0.9118086882105548,1,False,2.2688636000966653,False,dot,dot,0.6488490127504855,12.528248440694073,2267.612967765627,177.32377965943698,1480,[np.int64(1126)],0.7099568338757949,3.2398023945271954,2.0560143267421362,0.025131940119637305,0.021347455915403483,,,,,,,,,,1,001,20,f,r,0.44961696895924486,True,,,,,
,,69,1,001,20,f,r,calibration,0.85,2,-1,7,0.7133701336716126,0.9118086882105548,1,False,1.2872751000104472,False,square,square,0.624416470958737,11.593518197544194,2098.426793755499,220.98513679669355,985,[np.int64(894)],0.6040816716970278,3.2708869171844195,2.070887263869573,0.02478582352597544,0.02126427275997807,,,,,,,,,,1,001,20,f,r,0.44961696895924486,True,,,,,
,,70,1,001,20,f,r,calibration,0.85,2,-1,8,0.7133701336716126,0.9118086882105548,0,True,nan,False,square,timeout,0.624416470958737,5.787733684016236,1047.5797968069387,115.0263680840109,236,[np.int64(1118)],0.6040816716970278,3.2708869171844195,2.070887263869573,0.02478582352597544,0.02126427275997807,,,,,,,,,,1,001,20,f,r,0.44961696895924486,True,,,,,
,,71,1,001,20,f,r,calibration,0.85,2,-1,9,0.7133701336716126,0.9118086882105548,0,False,0.8322895000455901,False,square,dot,0.5906326710145026,5.91246680475214,1070.1564916601374,130.35499145710153,635,[np.int64(935)],0.9864420580387651,3.0896128586593825,1.9768391340785192,0.02627832789925876,0.021573606012110978,,,,,,,,,,1,001,20,f,r,0.44961696895924486,True,,,,,
,,72,1,001,20,f,r,calibration,0.85,2,-1,10,0.7629446568996856,1.1688918660356877,0,False,2.8647202999563888,False,square,dot,0.5302644301469298,3.7407237262063093,677.070994443342,44.648116181608415,1427,[np.int64(275)],1.310965889227981,3.0008512974533614,1.9287344059748206,0.027488609814970304,0.021771454229252796,,,,,,,,,,1,001,20,f,r,0.44961696895924486,True,,,,,
,,73,1,001,20,f,r,calibration,0.85,2,-1,11,0.7629446568996856,1.1688918660356877,1,False,1.583007299923338,False,square,square,0.5374454486708099,5.3183686750505865,951.9879928340549,101.24709472854498,305,[np.int64(878)],nan,nan,nan,nan,nan,,,,,,,,,,1,001,20,f,r,0.44961696895924486,True,,,,,
,,74,1,001,20,f,r,calibration,0.85,2,-1,12,0.7629446568996856,1.1688918660356877,0,False,2.064070999971591,False,square,dot,0.4654677901983626,8.380143336936086,1516.8059439854317,157.41092014843372,52,[np.int64(1554)],nan,nan,nan,nan,nan,,,,,,,,,,1,001,20,f,r,0.44961696895924486,True,,,,,
,,75,1,001,20,f,r,calibration,0.85,2,-1,13,0.806273406195118,1.4259750438608214,1,False,3.6341506999451667,False,dot,dot,0.4714420777221449,3.5546064421361554,643.3837660266441,26.78202371100021,1568,[np.int64(1244)],nan,nan,nan,nan,nan,,,,,,,,,,1,001,20,f,r,0.44961696895924486,True,,,,,
,,76,1,001,20,f,r,calibration,0.85,2,-1,14,0.806273406195118,1.4259750438608214,0,False,2.8175891999853775,False,dot,square,0.4068464878035373,3.827647391458138,692.804177853923,28.625987403436916,1402,[np.int64(992)],nan,nan,nan,nan,nan,,,,,,,,,,1,001,20,f,r,0.44961696895924486,True,,,,,
,,77,1,001,20,f,r,calibration,0.85,2,-1,15,0.806273406195118,1.4259750438608214,0,False,1.2310980999609455,False,dot,square,0.34392364304865364,6.028107257961586,1091.087413691047,92.04511115244283,1004,[np.int64(731)],nan,nan,nan,nan,nan,,,,,,,,,,1,001,20,f,r,0.44961696895924486,True,,,,,
,,78,1,001,20,f,r,calibration,0.85,2,-1,16,0.843309065531368,1.683058221685953,1,False,1.254313400015235,False,dot,dot,0.3533290769006048,1.4792053321539362,267.73616511986245,8.586804238829442,76,[np.int64(1466)],nan,nan,nan,nan,nan,,,,,,,,,,1,001,20,f,r,0.44961696895924486,True,,,,,
,,79,1,001,20,f,r,calibration,0.85,2,-1,17,0.843309065531368,1.683058221685953,1,False,3.6803742999909446,False,square,square,0.36023611546214646,3.1467084406139234,569.5542277511202,39.992973936175325,1165,[np.int64(1497)],nan,nan,nan,nan,nan,,,,,,,,,,1,001,20,f,r,0.44961696895924486,True,,,,,
,,80,1,001,20,f,r,calibration,0.85,2,-1,18,0.843309065531368,1.683058221685953,0,False,1.282469299971126,False,dot,square,0.3114251658651778,4.3272558958522795,783.2333171492626,64.80110414089971,231,[np.int64(915)],nan,nan,nan,nan,nan,,,,,,,,,,1,001,20,f,r,0.44961696895924486,True,,,,,
,,81,1,001,20,f,r,calibration,0.85,2,-1,19,0.843309065531368,1.683058221685953,1,False,1.9499400000786409,False,dot,dot,0.3204209989515872,4.4707707538475105,809.2095064463994,56.052291885386104,1123,[np.int64(990)],nan,nan,nan,nan,nan,,,,,,,,,,1,001,20,f,r,0.44961696895924486,True,,,,,
,,82,1,001,20,f,r,calibration,0.85,2,-1,20,0.843309065531368,1.683058221685953,0,False,1.7973435000749305,False,dot,square,0.27737819996997726,3.3538850692107345,607.053197527143,33.85279685656376,599,[np.int64(742)],1.8243254899529975,3.042091958804339,1.9507212684542645,0.030153695805634047,0.022029491722781812,,,,,,,,,,1,001,20,f,r,0.44961696895924486,True,,,,,
,,83,1,001,20,f,r,calibration,0.85,2,-1,21,0.843309065531368,1.683058221685953,1,False,1.6825349000282586,False,dot,dot,0.2867383607916914,4.07643450286195,737.834645018013,65.61998810203893,899,[np.int64(1500)],nan,nan,nan,nan,nan,,,,,,,,,,1,001,20,f,r,0.44961696895924486,True,,,,,
,,84,1,001,20,f,r,calibration,0.85,2,-1,22,0.843309065531368,1.683058221685953,0,False,1.8816339999902993,False,dot,square,0.2504181962065547,6.3519176987926285,1149.6971034814658,107.20389538542956,971,[np.int64(1125)],nan,nan,nan,nan,nan,,,,,,,,,,1,001,20,f,r,0.44961696895924486,True,,,,,
,,85,1,001,20,f,r,calibration,0.85,2,-1,23,0.8743676768795192,1.940141399511088,1,False,2.0152883999980986,False,dot,dot,0.25584616919100456,9.636703911097099,1744.243407908575,191.9081675007454,16,[np.int64(720)],nan,nan,nan,nan,nan,,,,,,,,,,1,001,20,f,r,0.44961696895924486,True,,,,,
,,86,1,001,20,f,r,calibration,0.85,2,-1,24,0.843309065531368,1.683058221685953,1,False,1.5144409000640735,False,dot,dot,0.264026530728937,7.684903365540886,1390.9675091629003,131.66353701124328,374,[np.int64(1053)],nan,nan,nan,nan,nan,,,,,,,,,,1,001,20,f,r,0.44961696895924486,True,,,,,
,,87,1,001,20,f,r,calibration,0.85,2,-1,25,0.843309065531368,1.683058221685953,0,False,1.4136816000100225,False,dot,square,0.23416497718257392,2.0801374362689273,376.5048759646758,24.782221206702175,804,[np.int64(1280)],nan,nan,nan,nan,nan,,,,,,,,,,1,001,20,f,r,0.44961696895924486,True,,,,,
,,88,1,001,20,f,r,calibration,0.85,2,-1,26,0.8743676768795192,1.940141399511088,0,False,1.1466155999805778,False,square,dot,0.20661811268525476,10.50295259140155,1901.0344190436806,157.62470418693113,1209,[np.int64(319)],nan,nan,nan,nan,nan,,,,,,,,,,1,001,20,f,r,0.44961696895924486,True,,,,,
,,89,1,001,20,f,r,calibration,0.85,2,-1,27,0.8743676768795192,1.940141399511088,1,False,1.151694000000134,False,dot,dot,0.21243031304352517,9.68588934804958,1753.145971996974,135.08955414870024,972,[np.int64(78)],nan,nan,nan,nan,nan,,,,,,,,,,1,001,20,f,r,0.44961696895924486,True,,,,,
,,90,1,001,20,f,r,calibration,0.85,2,-1,28,0.8743676768795192,1.940141399511088,0,False,1.2504641999257728,False,square,dot,0.18750479961653554,16.5163389516103,2989.457350241464,224.8426582180823,1525,[np.int64(1038)],nan,nan,nan,nan,nan,,,,,,,,,,1,001,20,f,r,0.44961696895924486,True,,,,,
,,91,1,001,20,f,r,calibration,0.85,2,-1,29,0.8743676768795192,1.940141399511088,1,False,0.8831097000511363,False,square,square,0.19334737380805003,15.20198354737398,2751.5590220746903,250.07861442377683,548,[np.int64(855)],nan,nan,nan,nan,nan,,,,,,,,,,1,001,20,f,r,0.44961696895924486,True,,,,,
,,92,1,001,20,f,r,calibration,0.85,2,-1,30,0.8743676768795192,1.940141399511088,1,False,0.9483801000751555,False,dot,dot,0.19883188003397056,14.141554650857769,2559.6213918052563,164.79065502141108,901,[np.int64(1543)],1.950949458363853,3.067121467222413,1.9616197262088515,0.031585831443194705,0.02206403734607859,,,,,,,,,,1,001,20,f,r,0.44961696895924486,True,,,,,
,,93,1,001,20,f,r,calibration,0.85,2,-1,31,0.8743676768795192,1.940141399511088,1,False,0.5810703000752255,False,square,square,0.2039026978694002,9.209753971375175,1666.9654688189066,144.41069739301653,679,[np.int64(183)],nan,nan,nan,nan,nan,,,,,,,,,,1,001,20,f,r,0.44961696895924486,True,,,,,
,,94,1,001,20,f,r,calibration,0.85,2,-1,32,0.8743676768795192,1.940141399511088,1,False,0.9016500998986885,False,square,square,0.20850933693662782,8.828948483260131,1598.0396754700837,122.64598848655443,1135,[np.int64(478)],nan,nan,nan,nan,nan,,,,,,,,,,1,001,20,f,r,0.44961696895924486,True,,,,,
,,95,1,001,20,f,r,calibration,0.85,2,-1,33,0.8743676768795192,1.940141399511088,1,False,0.5994902000529692,False,square,square,0.21260841433884983,6.744102946729281,1220.6826333579997,95.593360135363,692,[np.int64(859)],nan,nan,nan,nan,nan,,,,,,,,,,1,001,20,f,r,0.44961696895924486,True,,,,,
,,96,1,001,20,f,r,calibration,0.85,2,-1,34,0.8743676768795192,1.940141399511088,1,False,0.7390809999778867,False,square,square,0.2161655279079347,10.780327036823778,1951.2391936651038,147.60314218340216,108,[np.int64(824)],nan,nan,nan,nan,nan,,,,,,,,,,1,001,20,f,r,0.44961696895924486,True,,,,,
,,97,1,001,20,f,r,calibration,0.85,2,-1,35,0.8743676768795192,1.940141399511088,1,False,0.585759500041604,False,dot,dot,0.2191568944370294,6.999530831891274,1266.9150805723207,85.82830548059346,12,[np.int64(1595)],nan,nan,nan,nan,nan,,,,,,,,,,1,001,20,f,r,0.44961696895924486,True,,,,,
,,98,1,001,20,f,r,calibration,0.85,2,-1,36,0.8743676768795192,1.940141399511088,1,False,1.1680126000428572,False,square,square,0.22157062328993207,3.588118003468662,649.4493586278278,42.20706108786142,26,[np.int64(1063)],nan,nan,nan,nan,nan,,,,,,,,,,1,001,20,f,r,0.44961696895924486,True,,,,,
,,99,1,001,20,f,r,calibration,0.85,2,-1,37,0.8743676768795192,1.940141399511088,1,False,0.8879453999688849,False,square,square,0.22340750968138154,2.6118591020684634,472.7464974743919,24.60674750916879,19,[np.int64(332)],nan,nan,nan,nan,nan,,,,,,,,,,1,001,20,f,r,0.44961696895924486,True,,,,,
,,100,1,001,20,f,r,calibration,0.85,2,-1,38,0.8743676768795192,1.940141399511088,1,False,0.8509710999205709,False,square,square,0.22468125857321844,3.0648012688535644,554.7290296624951,30.6802973069749,184,[np.int64(28)],nan,nan,nan,nan,nan,,,,,,,,,,1,001,20,f,r,0.44961696895924486,True,,,,,
,,101,1,001,20,f,r,calibration,0.85,2,-1,39,0.8743676768795192,1.940141399511088,1,False,0.6028513999190181,False,dot,dot,0.22541808794519255,2.120005046957797,383.72091349936125,20.05612663081425,703,[np.int64(924)],nan,nan,nan,nan,nan,,,,,,,,,,1,001,20,f,r,0.44961696895924486,True,,,,,
,,102,1,001,20,f,r,calibration,0.85,2,-1,40,0.8743676768795192,1.940141399511088,1,False,0.6862833000486717,False,square,square,0.2256557060299684,3.2094936242801,580.9183459946981,34.78985438467858,947,[np.int64(361)],1.7677316769399265,3.259427383741295,2.067490636990539,0.028119507702835198,0.021804110452101406,,,,,,,,,,1,001,20,f,r,0.44961696895924486,True,,,,,
,,103,1,001,20,f,r,calibration,0.85,2,-1,41,0.8743676768795192,1.940141399511088,1,False,1.1696047999430448,False,dot,dot,0.22544170659651858,6.888976390110854,1246.9047266100647,105.74903398537383,429,[np.int64(578)],nan,nan,nan,nan,nan,,,,,,,,,,1,001,20,f,r,0.44961696895924486,True,,,,,
,,104,1,001,20,f,r,calibration,0.85,2,-1,42,0.8743676768795192,1.940141399511088,1,False,0.7349411000031978,False,square,square,0.22483147449822644,7.590475507515133,1373.876066860239,90.3346841698899,671,[np.int64(1369)],nan,nan,nan,nan,nan,,,,,,,,,,1,001,20,f,r,0.44961696895924486,True,,,,,
,,105,1,001,20,f,r,calibration,0.85,2,-1,43,0.843309065531368,1.683058221685953,1,False,0.7020226999884471,False,dot,dot,0.22666292311463074,6.969744216086737,1261.5237031116994,95.63109013997362,201,[np.int64(1270)],nan,nan,nan,nan,nan,,,,,,,,,,1,001,20,f,r,0.44961696895924486,True,,,,,
,,106,1,001,20,f,r,calibration,0.85,2,-1,44,0.843309065531368,1.683058221685953,1,False,0.838416300015524,False,square,square,0.2279907872866363,4.360589177809254,789.2666411834749,32.44262310720875,399,[np.int64(1484)],nan,nan,nan,nan,nan,,,,,,,,,,1,001,20,f,r,0.44961696895924486,True,,,,,
,,107,1,001,20,f,r,calibration,0.85,2,-1,45,0.843309065531368,1.683058221685953,1,False,0.8330875999527052,False,dot,dot,0.22884583053041857,4.855186068679117,878.7886784309203,45.59524092460112,427,[np.int64(523)],nan,nan,nan,nan,nan,,,,,,,,,,1,001,20,f,r,0.44961696895924486,True,,,,,
,,108,1,001,20,f,r,calibration,0.85,2,-1,46,0.843309065531368,1.683058221685953,1,False,1.2015515000093728,False,dot,dot,0.22926667922530083,6.54780660356568,1185.152995245388,108.34301201423156,799,[np.int64(737)],nan,nan,nan,nan,nan,,,,,,,,,,1,001,20,f,r,0.44961696895924486,True,,,,,
,,109,1,001,20,f,r,calibration,0.85,2,-1,47,0.843309065531368,1.683058221685953,1,False,0.8499809000641108,False,dot,dot,0.2292978792828781,9.726685606872023,1760.5300948438362,120.99781422795388,581,[np.int64(910)],nan,nan,nan,nan,nan,,,,,,,,,,1,001,20,f,r,0.44961696895924486,True,,,,,
,,110,1,001,20,f,r,calibration,0.85,2,-1,48,0.843309065531368,1.683058221685953,1,False,1.1881802000571042,False,dot,dot,0.22898791530253118,5.479825219369326,991.8483647058481,74.42587939900694,959,[np.int64(49)],nan,nan,nan,nan,nan,,,,,,,,,,1,001,20,f,r,0.44961696895924486,True,,,,,
,,111,1,001,20,f,r,calibration,0.85,2,-1,49,0.843309065531368,1.683058221685953,1,False,0.7361636999994516,False,dot,dot,0.22838728734930233,6.58091175094594,1191.145026921215,118.84314092902027,1119,[np.int64(461)],nan,nan,nan,nan,nan,,,,,,,,,,1,001,20,f,r,0.44961696895924486,True,,,,,
,,112,1,001,20,f,r,calibration,0.85,2,-1,50,0.843309065531368,1.683058221685953,1,False,0.8541964999167249,False,square,square,0.22754672738333617,10.641633229710115,1926.1356145775308,144.2949225394437,1160,[np.int64(994)],1.55383271098125,3.4605147227573867,2.176743461527655,0.024808695493970384,0.021179021661233817,,,,,,,,,,1,001,20,f,r,0.44961696895924486,True,,,,,
,,113,1,001,20,f,r,calibration,0.85,2,-1,51,0.843309065531368,1.683058221685953,1,False,0.6029164999490604,False,dot,dot,0.22651562032236122,8.711561073526044,1576.792554308214,123.34087970427845,1517,[np.int64(1439)],nan,nan,nan,nan,nan,,,,,,,,,,1,001,20,f,r,0.44961696895924486,True,,,,,
,,114,1,001,20,f,r,calibration,0.85,2,-1,52,0.843309065531368,1.683058221685953,1,False,1.5890491000609472,False,square,square,0.22534067548349657,7.0363518982648845,1273.5796935859441,85.78372720627404,1566,[np.int64(867)],nan,nan,nan,nan,nan,,,,,,,,,,1,001,20,f,r,0.44961696895924486,True,,,,,
,,115,1,001,20,f,r,calibration,0.85,2,-1,53,0.843309065531368,1.683058221685953,1,False,0.886099600000307,False,square,square,0.22406487458551352,8.144554028196342,1474.164279103538,109.79343483114872,1510,[np.int64(1099)],nan,nan,nan,nan,nan,,,,,,,,,,1,001,20,f,r,0.44961696895924486,True,,,,,
,,116,1,001,20,f,r,calibration,0.85,2,-1,54,0.843309065531368,1.683058221685953,1,False,0.6716968999244273,False,dot,dot,0.22272670425793406,8.312486261250696,1504.560013286376,120.02020349636877,942,[np.int64(927)],nan,nan,nan,nan,nan,,,,,,,,,,1,001,20,f,r,0.44961696895924486,True,,,,,
,,117,1,001,20,f,r,calibration,0.85,2,-1,55,0.806273406195118,1.4259750438608214,1,False,0.8006022999761626,False,square,square,0.22494465425454155,11.293145629779048,2044.0593589900077,166.13055423629697,1183,[np.int64(249)],nan,nan,nan,nan,nan,,,,,,,,,,1,001,20,f,r,0.44961696895924486,True,,,,,
,,118,1,001,20,f,r,calibration,0.85,2,-1,56,0.806273406195118,1.4259750438608214,1,False,0.836290100007318,False,dot,dot,0.22681949050661673,9.247212231525738,1673.7454139061585,133.44541201750468,291,[np.int64(138)],nan,nan,nan,nan,nan,,,,,,,,,,1,001,20,f,r,0.44961696895924486,True,,,,,
,,119,1,001,20,f,r,calibration,0.85,2,-1,57,0.806273406195118,1.4259750438608214,1,False,0.8365795999998227,False,square,square,0.22833448771805737,11.961153345381115,2164.9687555139817,158.82381779336674,1582,[np.int64(1073)],nan,nan,nan,nan,nan,,,,,,,,,,1,001,20,f,r,0.44961696895924486,True,,,,,
,,120,1,001,20,f,r,calibration,0.85,2,-1,58,0.806273406195118,1.4259750438608214,1,False,0.6537197000579908,False,dot,dot,0.2294823015025626,11.419917818599462,2067.0051251665027,188.45731445190694,1551,[np.int64(1344)],nan,nan,nan,nan,nan,,,,,,,,,,1,001,20,f,r,0.44961696895924486,True,,,,,
,,121,1,001,20,f,r,calibration,0.85,2,-1,59,0.806273406195118,1.4259750438608214,1,False,0.7520288999658078,False,dot,dot,0.23026510918502274,10.87190458578541,1967.8147300271594,144.41611304487319,997,[np.int64(1370)],nan,nan,nan,nan,nan,,,,,,,,,,1,001,20,f,r,0.44961696895924486,True,,,,,
,,122,1,001,20,f,r,calibration,0.85,2,-1,60,0.806273406195118,1.4259750438608214,1,False,0.8861945999087766,False,square,square,0.23069432108350996,11.086690711645462,2006.6910188078284,151.6770578401177,1384,[np.int64(111)],1.333218921235685,3.7059830992625313,2.2944134794677367,0.021709621214303434,0.020245143867879088,,,,,,,,,,1,001,20,f,r,0.44961696895924486,True,,,,,
,,123,1,001,20,f,r,calibration,0.85,2,-1,61,0.806273406195118,1.4259750438608214,1,False,1.1040012000594288,False,dot,dot,0.23078986842301313,10.310877421758748,1866.2688133383335,130.7439480349174,1158,[np.int64(1137)],nan,nan,nan,nan,nan,,,,,,,,,,1,001,20,f,r,0.44961696895924486,True,,,,,
,,124,1,001,20,f,r,calibration,0.85,2,-1,62,0.806273406195118,1.4259750438608214,1,False,0.7513549999566749,False,dot,dot,0.23057910203260237,11.582246458944566,2096.386609068966,154.31543643526487,1006,[np.int64(1166)],nan,nan,nan,nan,nan,,,,,,,,,,1,001,20,f,r,0.44961696895924486,True,,,,,
,,125,1,001,20,f,r,calibration,0.85,2,-1,63,0.806273406195118,1.4259750438608214,1,False,0.6532922999467701,False,dot,dot,0.23009536394907618,4.7098965669756225,852.4912786225877,67.36045837806246,1413,[np.int64(668)],nan,nan,nan,nan,nan,,,,,,,,,,1,001,20,f,r,0.44961696895924486,True,,,,,
,,126,1,001,20,f,r,calibration,0.85,2,-1,64,0.806273406195118,1.4259750438608214,1,False,0.700635900022462,False,dot,dot,0.22937631912536863,3.4573039693450114,625.772018451447,27.25156320302077,1583,[np.int64(1148)],nan,nan,nan,nan,nan,,,,,,,,,,1,001,20,f,r,0.44961696895924486,True,,,,,
,,127,1,001,20,f,r,calibration,0.85,2,-1,65,0.806273406195118,1.4259750438608214,1,False,0.6690857999492437,False,dot,dot,0.22846215381327545,7.772991808239752,1406.911517291395,111.97074769911436,1124,[np.int64(1152)],nan,nan,nan,nan,nan,,,,,,,,,,1,001,20,f,r,0.44961696895924486,True,,,,,
,,128,1,001,20,f,r,calibration,0.85,2,-1,66,0.7629446568996856,1.1688918660356877,1,False,0.6380746000213549,False,square,square,0.23164483447365733,10.013621454578109,1812.4654832786377,128.68468837486503,907,[np.int64(778)],nan,nan,nan,nan,nan,,,,,,,,,,1,001,20,f,r,0.44961696895924486,True,,,,,
,,129,1,001,20,f,r,calibration,0.85,2,-1,67,0.7629446568996856,1.1688918660356877,1,False,0.5692632000427693,False,square,square,0.23422366729895347,9.488715271737918,1717.4574641845634,116.52569425259975,499,[np.int64(687)],nan,nan,nan,nan,nan,,,,,,,,,,1,001,20,f,r,0.44961696895924486,True,,,,,
,,130,1,001,20,f,r,calibration,0.85,2,-1,68,0.7629446568996856,1.1688918660356877,1,False,0.7038982999511063,False,square,square,0.2361640420162513,10.087709420621819,1825.8754051325493,169.97692469960234,616,[np.int64(1216)],nan,nan,nan,nan,nan,,,,,,,,,,1,001,20,f,r,0.44961696895924486,True,,,,,
,,131,1,001,20,f,r,calibration,0.85,2,-1,69,0.7629446568996856,1.1688918660356877,1,False,0.5706216999096796,False,square,square,0.23745653790248847,7.725896515305969,1398.3872692703803,99.69221099839889,572,[np.int64(1552)],nan,nan,nan,nan,nan,,,,,,,,,,1,001,20,f,r,0.44961696895924486,True,,,,,
,,132,1,001,20,f,r,calibration,0.85,2,-1,70,0.7629446568996856,1.1688918660356877,1,False,0.5509377999696881,False,square,square,0.23811648318604536,10.428346857257566,1866.6740874491043,171.103607836525,1193,[np.int64(1397)],1.091516519844446,3.949079527133761,2.394164321952392,0.018919033834579435,0.019095071505963627,,,,,,,,,,1,001,20,f,r,0.44961696895924486,True,,,,,
,,133,1,001,20,f,r,calibration,0.85,2,-1,71,0.7629446568996856,1.1688918660356877,1,False,0.8848002000013366,False,dot,dot,0.23818191286996865,9.271497579779542,1678.1410619400972,107.87824213258325,658,[np.int64(27)],nan,nan,nan,nan,nan,,,,,,,,,,1,001,20,f,r,0.44961696895924486,True,,,,,
,,134,1,001,20,f,r,calibration,0.85,2,-1,72,0.7629446568996856,1.1688918660356877,1,False,0.534861300024204,False,square,square,0.23771012815183776,12.193999930745393,2207.113987464916,247.9417264948624,412,[np.int64(1414)],nan,nan,nan,nan,nan,,,,,,,,,,1,001,20,f,r,0.44961696895924486,True,,,,,
,,135,1,001,20,f,r,calibration,0.85,2,-1,73,0.7629446568996856,1.1688918660356877,1,False,0.6227381000062451,False,dot,dot,0.23677318574738157,11.779040093275245,2132.0062568828193,180.93123517021462,60,[np.int64(1257)],nan,nan,nan,nan,nan,,,,,,,,,,1,001,20,f,r,0.44961696895924486,True,,,,,
,,136,1,001,20,f,r,calibration,0.85,2,-1,74,0.7629446568996856,1.1688918660356877,1,False,0.5373219000175595,False,square,square,0.23545273776130501,6.061801190207112,1097.1860154274873,85.18285244701131,939,[np.int64(194)],nan,nan,nan,nan,nan,,,,,,,,,,1,001,20,f,r,0.44961696895924486,True,,,,,
,,137,1,001,20,f,r,calibration,0.85,2,-1,75,0.7629446568996856,1.1688918660356877,1,False,1.2527360999956727,False,dot,dot,0.2338346884731726,3.1986021027571088,578.9469805990367,52.480641953537166,1247,[np.int64(1201)],nan,nan,nan,nan,nan,,,,,,,,,,1,001,20,f,r,0.44961696895924486,True,,,,,
,,138,1,001,20,f,r,calibration,0.85,2,-1,76,0.7133701336716126,0.9118086882105548,1,False,1.3204785999841988,False,square,square,0.23669984560614352,2.3289184986591898,421.5342482573134,17.16918069026432,1508,[np.int64(330)],nan,nan,nan,nan,nan,,,,,,,,,,1,001,20,f,r,0.44961696895924486,True,,,,,
,,139,1,001,20,f,r,calibration,0.85,2,-1,77,0.7133701336716126,0.9118086882105548,1,False,1.3180757999652997,False,square,square,0.23878717348047163,6.1380928530320515,1110.9948063988013,102.3841033383548,1017,[np.int64(1272)],nan,nan,nan,nan,nan,,,,,,,,,,1,001,20,f,r,0.44961696895924486,True,,,,,
,,140,1,001,20,f,r,calibration,0.85,2,-1,78,0.7133701336716126,0.9118086882105548,1,False,1.0191472999285907,False,square,square,0.24008988685682559,3.548764022238852,642.3262880252322,44.805220802766954,1530,[np.int64(95)],nan,nan,nan,nan,nan,,,,,,,,,,1,001,20,f,r,0.44961696895924486,True,,,,,
,,141,1,001,20,f,r,calibration,0.85,2,-1,79,0.7133701336716126,0.9118086882105548,1,False,0.9359469000482932,False,square,square,0.24063853961436313,4.0948742621504,741.1722414492224,54.71098351265207,1298,[np.int64(370)],nan,nan,nan,nan,nan,,,,,,,,,,1,001,20,f,r,0.44961696895924486,True,,,,,
,,142,1,001,20,f,r,calibration,0.85,2,-1,80,0.7133701336716126,0.9118086882105548,1,False,0.6348463000031188,False,square,square,0.24049666714729845,5.775848331775841,1045.4285480514272,74.07274533926297,1084,[np.int64(1233)],0.8272929367473796,4.186201941511169,2.4781902534792017,0.016468819062481904,0.017822364505409884,,,,,,,,,,1,001,20,f,r,0.44961696895924486,True,,,,,
,,143,1,001,20,f,r,test,,2,1,1,0.44961696895924486,,1,False,1.1347320000641048,False,img_B,img_B,,4.670969024620374,836.1034554070469,58.34490906288839,576,[np.int64(638)],,,,,,low,0.44961696895924486,4,checkers_07s,pajamas_13s,11,21,31,41,1,001,20,f,r,0.44961696895924486,True,0.7629446568996856,False,"['low', 'high', 'low', 'high', 'low', 'high']",low,
,,144,1,001,20,f,r,test,,2,1,2,0.44961696895924486,,1,False,1.2474958000238985,False,img_B,img_B,,4.696913402214766,850.1413258008727,192.008356813337,1486,[np.int64(866)],,,,,,low,0.44961696895924486,4,puppy_06s,lion_22s,11,21,31,41,1,001,20,f,r,0.44961696895924486,True,0.7629446568996856,False,"['low', 'high', 'low', 'high', 'low', 'high']",low,
,,145,1,001,20,f,r,test,,2,1,3,0.44961696895924486,,1,False,1.444700499996543,False,img_A,img_A,,4.021054311375071,727.8108303588879,186.01996291920892,1021,[np.int64(1105)],,,,,,low,0.44961696895924486,5,banana_06s,wetsuit_03s,11,21,31,41,1,001,20,f,r,0.44961696895924486,True,0.7629446568996856,False,"['low', 'high', 'low', 'high', 'low', 'high']",low,
,,146,1,001,20,f,r,test,,2,1,4,0.44961696895924486,,1,False,1.2123028000351042,False,img_B,img_B,,5.706973474750445,1032.9621989298305,280.065338992156,1324,[np.int64(1121)],,,,,,low,0.44961696895924486,4,quiche_07s,jumpsuit_07s,11,21,31,41,1,001,20,f,r,0.44961696895924486,True,0.7629446568996856,False,"['low', 'high', 'low', 'high', 'low', 'high']",low,
,,147,1,001,20,f,r,test,,2,1,5,0.44961696895924486,,1,False,1.1102547000627965,False,img_A,img_A,,5.27345045870931,954.4945330263852,218.98098140249192,706,[np.int64(1018)],,,,,,low,0.44961696895924486,1,sorbet_05s,hobbyhorse_04s,11,21,31,41,1,001,20,f,r,0.44961696895924486,True,0.7629446568996856,False,"['low', 'high', 'low', 'high', 'low', 'high']",low,
,,148,1,001,20,f,r,test,,2,1,6,0.44961696895924486,,1,False,1.6497905000578612,False,img_A,img_A,,7.123937004412853,1289.4325977987264,237.06694559228703,1092,[np.int64(1103)],,,,,,low,0.44961696895924486,2,butter_14s,brush_04s,11,21,31,41,1,001,20,f,r,0.44961696895924486,True,0.7629446568996856,False,"['low', 'high', 'low', 'high', 'low', 'high']",low,
,,149,1,001,20,f,r,test,,2,1,7,0.44961696895924486,,1,False,2.4463956999825314,False,img_B,img_B,,6.680357568128347,1209.1447198312308,198.4286994457594,700,[np.int64(513)],,,,,,low,0.44961696895924486,3,pill_06s,olive_04s,11,21,31,41,1,001,20,f,r,0.44961696895924486,True,0.7629446568996856,False,"['low', 'high', 'low', 'high', 'low', 'high']",low,
,,150,1,001,20,f,r,test,,2,1,8,0.44961696895924486,,1,False,1.2623121000360698,False,img_B,img_B,,6.501992911219373,1176.8607169307065,410.3409339055545,786,[np.int64(723)],,,,,,low,0.44961696895924486,3,bedpan_13s,paintbrush_12s,11,21,31,41,1,001,20,f,r,0.44961696895924486,True,0.7629446568996856,False,"['low', 'high', 'low', 'high', 'low', 'high']",low,
,,151,1,001,20,f,r,test,,2,1,9,0.44961696895924486,,1,False,1.8657871999312192,False,img_A,img_A,,8.283384733696833,1499.2926367991267,287.45534107052794,1159,[np.int64(888)],,,,,,low,0.44961696895924486,1,taco_05s,waffle_iron_14s,11,21,31,41,1,001,20,f,r,0.44961696895924486,True,0.7629446568996856,False,"['low', 'high', 'low', 'high', 'low', 'high']",low,
,,152,1,001,20,f,r,test,,2,1,10,0.44961696895924486,,1,False,1.6807373999617994,False,img_A,img_A,,8.030807151941433,1453.5760945013994,240.13916801192107,1341,[np.int64(1014)],,,,,,low,0.44961696895924486,1,lab_coat_04s,kazoo_08s,11,21,31,41,1,001,20,f,r,0.44961696895924486,True,0.7629446568996856,False,"['low', 'high', 'low', 'high', 'low', 'high']",low,
,,153,1,001,20,f,r,test,,2,1,11,0.44961696895924486,,1,False,1.6308258000062779,False,img_B,img_B,,4.8075252635664825,870.1620727055333,132.7705069459816,1578,[np.int64(876)],,,,,,low,0.44961696895924486,1,sushi_08s,tube_top_10s,11,21,31,41,1,001,20,f,r,0.44961696895924486,True,0.7629446568996856,False,"['low', 'high', 'low', 'high', 'low', 'high']",low,
,,154,1,001,20,f,r,test,,2,1,12,0.44961696895924486,,1,False,1.49673030001577,False,img_B,img_B,,8.54695311305222,1546.998513462452,309.14723040132867,94,[np.int64(1249)],,,,,,low,0.44961696895924486,1,duster_07s,spaghetti_07s,11,21,31,41,1,001,20,f,r,0.44961696895924486,True,0.7629446568996856,False,"['low', 'high', 'low', 'high', 'low', 'high']",low,
,,155,1,001,20,f,r,test,,2,1,13,0.44961696895924486,,1,False,1.4297432999592274,False,img_B,img_B,,7.025232723423211,1271.5671229396012,142.310918908195,526,[np.int64(617)],,,,,,low,0.44961696895924486,1,candy_cane_05s,float_08s,11,21,31,41,1,001,20,f,r,0.44961696895924486,True,0.7629446568996856,False,"['low', 'high', 'low', 'high', 'low', 'high']",low,
,,156,1,001,20,f,r,test,,2,1,14,0.44961696895924486,,1,False,1.8622027999954298,False,img_A,img_A,,8.526112530538922,1543.226368027545,216.2296413232269,926,[np.int64(127)],,,,,,low,0.44961696895924486,1,toilet_14n,doorknocker_26s,11,21,31,41,1,001,20,f,r,0.44961696895924486,True,0.7629446568996856,False,"['low', 'high', 'low', 'high', 'low', 'high']",low,
,,157,1,001,20,f,r,test,,2,1,15,0.44961696895924486,,1,False,1.6298935000086203,False,img_A,img_A,,6.908556402224213,1250.4487088025826,391.6813575620488,1031,[np.int64(278)],,,,,,low,0.44961696895924486,2,shower_cap_12s,cauliflower_02s,11,21,31,41,1,001,20,f,r,0.44961696895924486,True,0.7629446568996856,False,"['low', 'high', 'low', 'high', 'low', 'high']",low,
,,158,1,001,20,f,r,test,,2,1,16,0.44961696895924486,,1,False,1.0269706000108272,False,img_A,img_A,,8.086138111526543,1463.5909981863042,258.7749922884447,1075,[np.int64(1101)],,,,,,low,0.44961696895924486,1,hamster_07s,curling_iron_05s,11,21,31,41,1,001,20,f,r,0.44961696895924486,True,0.7629446568996856,False,"['low', 'high', 'low', 'high', 'low', 'high']",low,
,,159,1,001,20,f,r,test,,2,1,17,0.44961696895924486,,1,False,1.3984835000010207,False,img_B,img_B,,7.302012338820671,1321.6642333265413,220.05341972418816,954,[np.int64(1430)],,,,,,low,0.44961696895924486,3,mulberry_02s,pita_02s,11,21,31,41,1,001,20,f,r,0.44961696895924486,True,0.7629446568996856,False,"['low', 'high', 'low', 'high', 'low', 'high']",low,
,,160,1,001,20,f,r,test,,2,1,18,0.44961696895924486,,1,False,1.4132476999657229,False,img_B,img_B,,6.581019132633224,1191.1644630066135,243.0812612271031,1197,[np.int64(931)],,,,,,low,0.44961696895924486,3,otter_12s,coaster_05s,11,21,31,41,1,001,20,f,r,0.44961696895924486,True,0.7629446568996856,False,"['low', 'high', 'low', 'high', 'low', 'high']",low,
,,161,1,001,20,f,r,test,,2,1,19,0.44961696895924486,,1,False,1.2139150000875816,False,img_A,img_A,,6.976729186376353,1262.7879827341199,229.843060349957,512,[np.int64(269)],,,,,,low,0.44961696895924486,3,spider_web_14s,bubble_wrap_11s,11,21,31,41,1,001,20,f,r,0.44961696895924486,True,0.7629446568996856,False,"['low', 'high', 'low', 'high', 'low', 'high']",low,
,,162,1,001,20,f,r,test,,2,1,20,0.44961696895924486,,1,False,1.3126465000677854,False,img_A,img_A,,7.497745925091591,1357.092012441578,289.93003857796066,31,[np.int64(974)],,,,,,low,0.44961696895924486,1,football_01b,glove_13s,11,21,31,41,1,001,20,f,r,0.44961696895924486,True,0.7629446568996856,False,"['low', 'high', 'low', 'high', 'low', 'high']",low,
,,163,1,001,20,f,r,test,,2,2,1,0.7629446568996856,,1,False,1.1465864999918267,False,img_B,img_B,,15.587347536556583,2821.3099041167416,211.29203909669985,1095,[np.int64(605)],,,,,,high,0.7629446568996856,7,crouton_12s,air_mattress_03s,13,23,33,41,1,001,20,f,r,0.44961696895924486,True,0.7629446568996856,False,"['low', 'high', 'low', 'high', 'low', 'high']",low,
,,164,1,001,20,f,r,test,,2,2,2,0.7629446568996856,,1,False,1.1275451000547037,False,img_B,img_B,,16.714922388315884,3025.4009522851748,210.4780913567313,329,[np.int64(887)],,,,,,high,0.7629446568996856,7,iceskate_14s,paint_10s,13,23,33,41,1,001,20,f,r,0.44961696895924486,True,0.7629446568996856,False,"['low', 'high', 'low', 'high', 'low', 'high']",low,
,,165,1,001,20,f,r,test,,2,2,3,0.7629446568996856,,1,False,1.1441838999744505,False,img_B,img_B,,17.425607378195757,3154.034935453432,213.608770716636,861,[np.int64(484)],,,,,,high,0.7629446568996856,7,celery_04s,tomato_sauce_07s,13,23,33,41,1,001,20,f,r,0.44961696895924486,True,0.7629446568996856,False,"['low', 'high', 'low', 'high', 'low', 'high']",low,
,,166,1,001,20,f,r,test,,2,2,4,0.7629446568996856,,1,False,1.009095499990508,False,img_A,img_A,,16.217396017350765,2935.3486791404885,223.8340593805322,949,[np.int64(989)],,,,,,high,0.7629446568996856,7,wallet_05s,diamond_14s,13,23,33,41,1,001,20,f,r,0.44961696895924486,True,0.7629446568996856,False,"['low', 'high', 'low', 'high', 'low', 'high']",low,
,,167,1,001,20,f,r,test,,2,2,5,0.7629446568996856,,1,False,1.1159438999602571,False,img_B,img_B,,16.412400809762588,2970.6445465670286,150.6803069850977,802,[np.int64(961)],,,,,,high,0.7629446568996856,7,giraffe_07s,taffy_02s,13,23,33,41,1,001,20,f,r,0.44961696895924486,True,0.7629446568996856,False,"['low', 'high', 'low', 'high', 'low', 'high']",low,
,,168,1,001,20,f,r,test,,2,2,6,0.7629446568996856,,1,False,1.3957166000036523,False,img_B,img_B,,17.320965515876388,3135.094758373626,216.58010762359143,857,[np.int64(48)],,,,,,high,0.7629446568996856,6,pickle_13s,batter_04s,13,23,33,41,1,001,20,f,r,0.44961696895924486,True,0.7629446568996856,False,"['low', 'high', 'low', 'high', 'low', 'high']",low,
,,169,1,001,20,f,r,test,,2,2,7,0.7629446568996856,,1,False,1.0835507999872789,False,img_B,img_B,,15.2238531433979,2755.51741895502,196.4901135348912,57,[np.int64(1236)],,,,,,high,0.7629446568996856,7,suit_06s,blower_08s,13,23,33,41,1,001,20,f,r,0.44961696895924486,True,0.7629446568996856,False,"['low', 'high', 'low', 'high', 'low', 'high']",low,
,,170,1,001,20,f,r,test,,2,2,8,0.7629446568996856,,1,False,1.3794230000348762,False,img_A,img_A,,15.481253905038713,2802.106956812007,218.54900909704887,1170,[np.int64(1539)],,,,,,high,0.7629446568996856,6,boxing_gloves_08s,boa_02s,13,23,33,41,1,001,20,f,r,0.44961696895924486,True,0.7629446568996856,False,"['low', 'high', 'low', 'high', 'low', 'high']",low,
,,171,1,001,20,f,r,test,,2,2,9,0.7629446568996856,,1,False,1.030754999956116,False,img_A,img_A,,17.652519388884304,3195.1060093880587,192.01294356735607,865,[np.int64(1241)],,,,,,high,0.7629446568996856,6,asparagus_07s,crutch_01b,13,23,33,41,1,001,20,f,r,0.44961696895924486,True,0.7629446568996856,False,"['low', 'high', 'low', 'high', 'low', 'high']",low,
,,172,1,001,20,f,r,test,,2,2,10,0.7629446568996856,,1,False,1.046758999931626,False,img_A,img_A,,17.029039146406053,3082.2560854994954,218.7150455576554,1010,[np.int64(686)],,,,,,high,0.7629446568996856,6,coffee_bean_12s,memory_stick_05s,13,23,33,41,1,001,20,f,r,0.44961696895924486,True,0.7629446568996856,False,"['low', 'high', 'low', 'high', 'low', 'high']",low,
,,173,1,001,20,f,r,test,,2,2,11,0.7629446568996856,,1,False,1.0973903998965397,False,img_A,img_A,,18.724497020456923,3389.133960702703,194.56297396327827,579,[np.int64(1424)],,,,,,high,0.7629446568996856,6,bean_04s,dreidel_10s,13,23,33,41,1,001,20,f,r,0.44961696895924486,True,0.7629446568996856,False,"['low', 'high', 'low', 'high', 'low', 'high']",low,
,,174,1,001,20,f,r,test,,2,2,12,0.7629446568996856,,1,False,0.7270881999284029,False,img_A,img_A,,17.8791551147034,3236.1270757613156,146.54045862332148,405,[np.int64(948)],,,,,,high,0.7629446568996856,6,limousine_01s,target_14s,13,23,33,41,1,001,20,f,r,0.44961696895924486,True,0.7629446568996856,False,"['low', 'high', 'low', 'high', 'low', 'high']",low,
,,175,1,001,20,f,r,test,,2,2,13,0.7629446568996856,,1,False,1.0623780000023544,False,img_B,img_B,,16.627875921438743,3009.6455417804127,213.8650000208103,837,[np.int64(1481)],,,,,,high,0.7629446568996856,6,lighter_08s,sequin_06s,13,23,33,41,1,001,20,f,r,0.44961696895924486,True,0.7629446568996856,False,"['low', 'high', 'low', 'high', 'low', 'high']",low,
,,176,1,001,20,f,r,test,,2,2,14,0.7629446568996856,,1,False,1.1468666000291705,False,img_A,img_A,,16.467517024509046,2980.6205814361374,132.08474796211144,424,[np.int64(772)],,,,,,high,0.7629446568996856,5,step_stool_11s,avocado_13s,13,23,33,41,1,001,20,f,r,0.44961696895924486,True,0.7629446568996856,False,"['low', 'high', 'low', 'high', 'low', 'high']",low,
,,177,1,001,20,f,r,test,,2,2,15,0.7629446568996856,,1,False,1.17704209999647,False,img_A,img_A,,16.32983788884559,2955.7006578810515,199.02017822437628,676,[np.int64(1009)],,,,,,high,0.7629446568996856,6,ready_meal_11s,hot_tub_07s,13,23,33,41,1,001,20,f,r,0.44961696895924486,True,0.7629446568996856,False,"['low', 'high', 'low', 'high', 'low', 'high']",low,
,,178,1,001,20,f,r,test,,2,2,16,0.7629446568996856,,1,False,1.3450249000452459,False,img_B,img_B,,15.588934205126854,2821.5970911279605,188.0891044154775,205,[np.int64(1142)],,,,,,high,0.7629446568996856,6,garlic_05s,punching_bag_12s,13,23,33,41,1,001,20,f,r,0.44961696895924486,True,0.7629446568996856,False,"['low', 'high', 'low', 'high', 'low', 'high']",low,
,,179,1,001,20,f,r,test,,2,2,17,0.7629446568996856,,1,False,1.2642182999989018,False,img_A,img_A,,16.420706957489127,2972.147959305532,188.26350915354473,498,[np.int64(1232)],,,,,,high,0.7629446568996856,5,apron_13s,hydrant_01s,13,23,33,41,1,001,20,f,r,0.44961696895924486,True,0.7629446568996856,False,"['low', 'high', 'low', 'high', 'low', 'high']",low,
,,180,1,001,20,f,r,test,,2,2,18,0.7629446568996856,,1,False,1.1103717000223696,False,img_B,img_B,,16.22111737206774,2936.0222443442613,166.69625341122682,1521,[np.int64(819)],,,,,,high,0.7629446568996856,5,pet_food_04s,urinal_10s,13,23,33,41,1,001,20,f,r,0.44961696895924486,True,0.7629446568996856,False,"['low', 'high', 'low', 'high', 'low', 'high']",low,
,,181,1,001,20,f,r,test,,2,2,19,0.7629446568996856,,1,False,1.095369099988602,False,img_B,img_B,,16.460842946629533,2979.4125733399455,203.91131673109754,1036,[np.int64(121)],,,,,,high,0.7629446568996856,6,clasp_09s,pants_03s,13,23,33,41,1,001,20,f,r,0.44961696895924486,True,0.7629446568996856,False,"['low', 'high', 'low', 'high', 'low', 'high']",low,
,,182,1,001,20,f,r,test,,2,2,20,0.7629446568996856,,1,False,1.1806124999420717,False,img_A,img_A,,17.41734355947895,3152.53918426569,197.99000733666975,886,[np.int64(677)],,,,,,high,0.7629446568996856,6,rooster_07s,cream_cheese_07s,13,23,33,41,1,001,20,f,r,0.44961696895924486,True,0.7629446568996856,False,"['low', 'high', 'low', 'high', 'low', 'high']",low,
,,183,1,001,20,f,r,test,,2,3,1,0.44961696895924486,,1,False,1.3650334000121802,False,img_B,img_B,,8.87194411109138,1605.82188410754,312.2300305171015,1143,[np.int64(1273)],,,,,,low,0.44961696895924486,3,sponge_14s,grapefruit_09s,11,21,31,41,1,001,20,f,r,0.44961696895924486,True,0.7629446568996856,False,"['low', 'high', 'low', 'high', 'low', 'high']",low,
,,184,1,001,20,f,r,test,,2,3,2,0.44961696895924486,,1,False,1.4432588999625295,False,img_B,img_B,,4.57775163645009,828.5730461974663,210.18235334708683,1398,[np.int64(493)],,,,,,low,0.44961696895924486,1,calf1_12s,turf_04s,11,21,31,41,1,001,20,f,r,0.44961696895924486,True,0.7629446568996856,False,"['low', 'high', 'low', 'high', 'low', 'high']",low,
,,185,1,001,20,f,r,test,,2,3,3,0.44961696895924486,,1,False,1.0976913999766111,False,img_A,img_A,,5.930950315869443,1073.502007172369,299.3945724068648,840,[np.int64(126)],,,,,,low,0.44961696895924486,2,sewage_09s,dragonfly_09s,11,21,31,41,1,001,20,f,r,0.44961696895924486,True,0.7629446568996856,False,"['low', 'high', 'low', 'high', 'low', 'high']",low,
,,186,1,001,20,f,r,test,,2,3,4,0.44961696895924486,,1,False,1.5324154000263661,False,img_A,img_A,,6.92448954168115,1253.3326070442881,383.33818330181566,950,[np.int64(1513)],,,,,,low,0.44961696895924486,1,handbrake_07s,swordfish_08s,11,21,31,41,1,001,20,f,r,0.44961696895924486,True,0.7629446568996856,False,"['low', 'high', 'low', 'high', 'low', 'high']",low,
,,187,1,001,20,f,r,test,,2,3,5,0.44961696895924486,,1,False,0.9131243000738323,False,img_B,img_B,,8.528116444688829,1543.589076488678,287.0314369739129,573,[np.int64(68)],,,,,,low,0.44961696895924486,1,toad_06s,light_switch_17s,11,21,31,41,1,001,20,f,r,0.44961696895924486,True,0.7629446568996856,False,"['low', 'high', 'low', 'high', 'low', 'high']",low,
,,188,1,001,20,f,r,test,,2,3,6,0.44961696895924486,,1,False,1.1964506999356672,False,img_A,img_A,,5.859899723202355,1060.6418498996263,348.8726947896183,1438,[np.int64(181)],,,,,,low,0.44961696895924486,2,leggings_12s,cardinal_05s,11,21,31,41,1,001,20,f,r,0.44961696895924486,True,0.7629446568996856,False,"['low', 'high', 'low', 'high', 'low', 'high']",low,
,,189,1,001,20,f,r,test,,2,3,7,0.44961696895924486,,1,False,1.4934466999256983,False,img_A,img_A,,6.033665322420057,1092.0934233580303,282.0185277714558,136,[np.int64(204)],,,,,,low,0.44961696895924486,1,macaroni_11s,dolphin_09n,11,21,31,41,1,001,20,f,r,0.44961696895924486,True,0.7629446568996856,False,"['low', 'high', 'low', 'high', 'low', 'high']",low,
,,190,1,001,20,f,r,test,,2,3,8,0.44961696895924486,,1,False,1.2127691999776289,False,img_B,img_B,,5.987921409839045,1083.8137751808672,224.89683471804827,1290,[np.int64(120)],,,,,,low,0.44961696895924486,1,cat_01b,wooden_leg_02s,11,21,31,41,1,001,20,f,r,0.44961696895924486,True,0.7629446568996856,False,"['low', 'high', 'low', 'high', 'low', 'high']",low,
,,191,1,001,20,f,r,test,,2,3,9,0.44961696895924486,,1,False,1.0966973999748006,False,img_A,img_A,,7.737736681050906,1400.530339270214,211.28000992000452,650,[np.int64(422)],,,,,,low,0.44961696895924486,2,boot_08s,washing_machine_05s,11,21,31,41,1,001,20,f,r,0.44961696895924486,True,0.7629446568996856,False,"['low', 'high', 'low', 'high', 'low', 'high']",low,
,,192,1,001,20,f,r,test,,2,3,10,0.44961696895924486,,1,False,1.111764800036326,False,img_B,img_B,,7.594852031103161,1374.6682176296722,233.4280708237579,221,[np.int64(1534)],,,,,,low,0.44961696895924486,1,corset_08s,dip_05s,11,21,31,41,1,001,20,f,r,0.44961696895924486,True,0.7629446568996856,False,"['low', 'high', 'low', 'high', 'low', 'high']",low,
,,193,1,001,20,f,r,test,,2,3,11,0.44961696895924486,,1,False,1.1312532000010833,False,img_B,img_B,,6.96738036729308,1261.0958464800474,159.67967987150146,838,[np.int64(536)],,,,,,low,0.44961696895924486,1,pinball_02s,lollipop_06n,11,21,31,41,1,001,20,f,r,0.44961696895924486,True,0.7629446568996856,False,"['low', 'high', 'low', 'high', 'low', 'high']",low,
,,194,1,001,20,f,r,test,,2,3,12,0.44961696895924486,,1,False,1.0459775999188423,False,img_B,img_B,,8.112610166289798,1468.3824400984533,201.4364473695083,1428,[np.int64(607)],,,,,,low,0.44961696895924486,2,kimono_02s,mitten_04s,11,21,31,41,1,001,20,f,r,0.44961696895924486,True,0.7629446568996856,False,"['low', 'high', 'low', 'high', 'low', 'high']",low,
,,195,1,001,20,f,r,test,,2,3,13,0.44961696895924486,,1,False,1.2295855999691412,False,img_B,img_B,,5.416182826476687,980.3290915922803,345.1561735418524,1311,[np.int64(1405)],,,,,,low,0.44961696895924486,2,ham_10s,parfait_20s,11,21,31,41,1,001,20,f,r,0.44961696895924486,True,0.7629446568996856,False,"['low', 'high', 'low', 'high', 'low', 'high']",low,
,,196,1,001,20,f,r,test,,2,3,14,0.44961696895924486,,1,False,1.9476050999946892,False,img_B,img_B,,3.2302008394432398,584.6663519392264,285.8369272816788,1104,[np.int64(968)],,,,,,low,0.44961696895924486,1,quesadilla_23s,bib_13n,11,21,31,41,1,001,20,f,r,0.44961696895924486,True,0.7629446568996856,False,"['low', 'high', 'low', 'high', 'low', 'high']",low,
,,197,1,001,20,f,r,test,,2,3,15,0.44961696895924486,,1,False,1.395815800060518,False,img_A,img_A,,5.707351551424169,1033.0306308077745,386.77810383190337,1191,[np.int64(130)],,,,,,low,0.44961696895924486,1,rattle_12s,egg_roll_07n,11,21,31,41,1,001,20,f,r,0.44961696895924486,True,0.7629446568996856,False,"['low', 'high', 'low', 'high', 'low', 'high']",low,
,,198,1,001,20,f,r,test,,2,3,16,0.44961696895924486,,1,False,1.0640600000042468,False,img_B,img_B,,6.575749494293062,1190.2106584670441,279.3383132943301,1238,[np.int64(1469)],,,,,,low,0.44961696895924486,1,cigarette_09s,headband_09s,11,21,31,41,1,001,20,f,r,0.44961696895924486,True,0.7629446568996856,False,"['low', 'high', 'low', 'high', 'low', 'high']",low,
,,199,1,001,20,f,r,test,,2,3,17,0.44961696895924486,,1,False,1.2306627000216395,False,img_A,img_A,,7.118896396787854,1288.5202478186015,185.0740096988079,729,[np.int64(1476)],,,,,,low,0.44961696895924486,1,domino_02s,ginger_03s,11,21,31,41,1,001,20,f,r,0.44961696895924486,True,0.7629446568996856,False,"['low', 'high', 'low', 'high', 'low', 'high']",low,
,,200,1,001,20,f,r,test,,2,3,18,0.44961696895924486,,1,False,1.1289630000246689,False,img_B,img_B,,6.858962193801295,1241.4721570780343,189.6544580724127,755,[np.int64(1440)],,,,,,low,0.44961696895924486,2,bowling_ball_01b,cloak_12s,11,21,31,41,1,001,20,f,r,0.44961696895924486,True,0.7629446568996856,False,"['low', 'high', 'low', 'high', 'low', 'high']",low,
,,201,1,001,20,f,r,test,,2,3,19,0.44961696895924486,,1,False,1.1794796000467613,False,img_A,img_A,,7.957059138719499,1440.2277041082293,301.1848882035843,1569,[np.int64(1418)],,,,,,low,0.44961696895924486,1,juicer1_06s,breadstick_14s,11,21,31,41,1,001,20,f,r,0.44961696895924486,True,0.7629446568996856,False,"['low', 'high', 'low', 'high', 'low', 'high']",low,
,,202,1,001,20,f,r,test,,2,3,20,0.44961696895924486,,1,False,1.0612238000612706,False,img_B,img_B,,5.534378831781036,1001.7225685523676,318.94880373926526,8,[np.int64(615)],,,,,,low,0.44961696895924486,1,container_04s,goat_02n,11,21,31,41,1,001,20,f,r,0.44961696895924486,True,0.7629446568996856,False,"['low', 'high', 'low', 'high', 'low', 'high']",low,
,,203,1,001,20,f,r,test,,2,4,1,0.7629446568996856,,1,False,1.431139099993743,False,img_A,img_A,,16.81988147030883,3044.398546125898,173.1687151249224,673,[np.int64(1268)],,,,,,high,0.7629446568996856,6,pepper2_07s,koala_10s,13,23,33,41,1,001,20,f,r,0.44961696895924486,True,0.7629446568996856,False,"['low', 'high', 'low', 'high', 'low', 'high']",low,
,,204,1,001,20,f,r,test,,2,4,2,0.7629446568996856,,1,False,0.778763800044544,False,img_A,img_A,,17.64452014558444,3193.6581463507837,204.14435794421735,655,[np.int64(880)],,,,,,high,0.7629446568996856,6,jelly_bean_13n,cheese_05n,13,23,33,41,1,001,20,f,r,0.44961696895924486,True,0.7629446568996856,False,"['low', 'high', 'low', 'high', 'low', 'high']",low,
,,205,1,001,20,f,r,test,,2,4,3,0.7629446568996856,,1,False,1.5126821999438107,False,img_B,img_B,,17.223953553857868,3117.5355932482744,225.41635966078593,62,[np.int64(1263)],,,,,,high,0.7629446568996856,5,soap_06s,praying_mantis_20s,13,23,33,41,1,001,20,f,r,0.44961696895924486,True,0.7629446568996856,False,"['low', 'high', 'low', 'high', 'low', 'high']",low,
,,206,1,001,20,f,r,test,,2,4,4,0.7629446568996856,,1,False,1.246017099940218,False,img_B,img_B,,18.8853775187664,3418.2533308967186,206.14181186896383,1457,[np.int64(160)],,,,,,high,0.7629446568996856,5,pea_14s,pumpkin_16s,13,23,33,41,1,001,20,f,r,0.44961696895924486,True,0.7629446568996856,False,"['low', 'high', 'low', 'high', 'low', 'high']",low,
,,207,1,001,20,f,r,test,,2,4,5,0.7629446568996856,,1,False,1.2283766000764444,False,img_A,img_A,,13.893542932250984,2514.731270737428,213.0084429752678,918,[np.int64(852)],,,,,,high,0.7629446568996856,5,mouthpiece_01s,football_helmet_05s,13,23,33,41,1,001,20,f,r,0.44961696895924486,True,0.7629446568996856,False,"['low', 'high', 'low', 'high', 'low', 'high']",low,
,,208,1,001,20,f,r,test,,2,4,6,0.7629446568996856,,1,False,1.1320810000179335,False,img_B,img_B,,15.234542520323538,2757.4521961785604,161.49613455325414,639,[np.int64(21)],,,,,,high,0.7629446568996856,6,beanbag_16s,badge_07s,13,23,33,41,1,001,20,f,r,0.44961696895924486,True,0.7629446568996856,False,"['low', 'high', 'low', 'high', 'low', 'high']",low,
,,209,1,001,20,f,r,test,,2,4,7,0.7629446568996856,,1,False,1.077510099974461,False,img_A,img_A,,14.966305361858675,2708.9012704964202,190.5721895225766,905,[np.int64(528)],,,,,,high,0.7629446568996856,5,sink_01b,eggplant_05n,13,23,33,41,1,001,20,f,r,0.44961696895924486,True,0.7629446568996856,False,"['low', 'high', 'low', 'high', 'low', 'high']",low,
,,210,1,001,20,f,r,test,,2,4,8,0.7629446568996856,,1,False,1.3460974000627175,False,img_A,img_A,,13.204703609069904,2390.0513532416526,150.06374765971805,1433,[np.int64(541)],,,,,,high,0.7629446568996856,5,electric_chair_09s,shaving_cream_05s,13,23,33,41,1,001,20,f,r,0.44961696895924486,True,0.7629446568996856,False,"['low', 'high', 'low', 'high', 'low', 'high']",low,
,,211,1,001,20,f,r,test,,2,4,9,0.7629446568996856,,1,False,1.1132066000718623,False,img_A,img_A,,14.929666175346469,2702.2695777377107,195.2582209064927,404,[np.int64(202)],,,,,,high,0.7629446568996856,5,caviar_01b,toast_13s,13,23,33,41,1,001,20,f,r,0.44961696895924486,True,0.7629446568996856,False,"['low', 'high', 'low', 'high', 'low', 'high']",low,
,,212,1,001,20,f,r,test,,2,4,10,0.7629446568996856,,1,False,1.0978103999514133,False,img_A,img_A,,15.781509768871976,2856.4532681658275,188.31390147918768,600,[np.int64(956)],,,,,,high,0.7629446568996856,4,peg_09s,walrus_02n,13,23,33,41,1,001,20,f,r,0.44961696895924486,True,0.7629446568996856,False,"['low', 'high', 'low', 'high', 'low', 'high']",low,
,,213,1,001,20,f,r,test,,2,4,11,0.7629446568996856,,1,False,1.213375199935399,False,img_A,img_A,,15.152189164666131,2742.54623880457,208.60779520798462,35,[np.int64(1499)],,,,,,high,0.7629446568996856,5,saffron_14s,dishrag_10s,13,23,33,41,1,001,20,f,r,0.44961696895924486,True,0.7629446568996856,False,"['low', 'high', 'low', 'high', 'low', 'high']",low,
,,214,1,001,20,f,r,test,,2,4,12,0.7629446568996856,,1,False,1.0973333000438288,False,img_A,img_A,,15.089152979440634,2731.1366892787546,224.0206023196591,258,[np.int64(417)],,,,,,high,0.7629446568996856,4,test_tube_12s,chopsticks_04s,13,23,33,41,1,001,20,f,r,0.44961696895924486,True,0.7629446568996856,False,"['low', 'high', 'low', 'high', 'low', 'high']",low,
,,215,1,001,20,f,r,test,,2,4,13,0.7629446568996856,,1,False,1.1643056999891996,False,img_A,img_A,,15.663762014834475,2835.14092468504,150.22440884847893,1444,[np.int64(930)],,,,,,high,0.7629446568996856,5,robot_01b,snorkel_09s,13,23,33,41,1,001,20,f,r,0.44961696895924486,True,0.7629446568996856,False,"['low', 'high', 'low', 'high', 'low', 'high']",low,
,,216,1,001,20,f,r,test,,2,4,14,0.7629446568996856,,1,False,1.1451501999981701,False,img_A,img_A,,14.341818306255993,2595.869113432335,183.11838327357228,952,[np.int64(993)],,,,,,high,0.7629446568996856,4,cheesecake_11s,vest_09s,13,23,33,41,1,001,20,f,r,0.44961696895924486,True,0.7629446568996856,False,"['low', 'high', 'low', 'high', 'low', 'high']",low,
,,217,1,001,20,f,r,test,,2,4,15,0.7629446568996856,,1,False,1.1301987000042573,False,img_A,img_A,,15.005391076771856,2715.975784895706,188.83871700921617,732,[np.int64(155)],,,,,,high,0.7629446568996856,5,hot_chocolate_07s,cashew_02s,13,23,33,41,1,001,20,f,r,0.44961696895924486,True,0.7629446568996856,False,"['low', 'high', 'low', 'high', 'low', 'high']",low,
,,218,1,001,20,f,r,test,,2,4,16,0.7629446568996856,,1,False,0.9625823999522254,False,img_A,img_A,,17.313486123547563,3133.7409883621085,200.6461109010081,1156,[np.int64(966)],,,,,,high,0.7629446568996856,4,bikini_09s,yarn_14s,13,23,33,41,1,001,20,f,r,0.44961696895924486,True,0.7629446568996856,False,"['low', 'high', 'low', 'high', 'low', 'high']",low,
,,219,1,001,20,f,r,test,,2,4,17,0.7629446568996856,,1,False,1.113648899947293,False,img_B,img_B,,16.861418941085688,3051.9168283365098,180.72981119768005,55,[np.int64(1352)],,,,,,high,0.7629446568996856,5,pantsuit_07s,raccoon_06n,13,23,33,41,1,001,20,f,r,0.44961696895924486,True,0.7629446568996856,False,"['low', 'high', 'low', 'high', 'low', 'high']",low,
,,220,1,001,20,f,r,test,,2,4,18,0.7629446568996856,,1,False,1.0466689999448135,False,img_B,img_B,,15.378117915945214,2783.4393427860837,194.95889165959085,362,[np.int64(730)],,,,,,high,0.7629446568996856,6,donut_02s,sloth_03s,13,23,33,41,1,001,20,f,r,0.44961696895924486,True,0.7629446568996856,False,"['low', 'high', 'low', 'high', 'low', 'high']",low,
,,221,1,001,20,f,r,test,,2,4,19,0.7629446568996856,,1,False,1.347300700028427,False,img_A,img_A,,16.59782230447944,3004.2058371107787,225.28038658437185,469,[np.int64(1400)],,,,,,high,0.7629446568996856,4,jam_13s,vacuum_11s,13,23,33,41,1,001,20,f,r,0.44961696895924486,True,0.7629446568996856,False,"['low', 'high', 'low', 'high', 'low', 'high']",low,
,,222,1,001,20,f,r,test,,2,4,20,0.7629446568996856,,1,False,1.263319900026545,False,img_A,img_A,,13.054667416174818,2362.894802327642,184.17933391673327,1082,[np.int64(790)],,,,,,high,0.7629446568996856,6,figurine_11s,hamburger_02s,13,23,33,41,1,001,20,f,r,0.44961696895924486,True,0.7629446568996856,False,"['low', 'high', 'low', 'high', 'low', 'high']",low,
,,223,1,001,20,f,r,test,,2,5,1,0.44961696895924486,,1,False,1.198646100005135,False,img_A,img_A,,5.628851797618157,1018.8221753688864,147.32270803792517,547,[np.int64(1487)],,,,,,low,0.44961696895924486,2,chinchilla_13n,ketchup_15s,11,21,31,41,1,001,20,f,r,0.44961696895924486,True,0.7629446568996856,False,"['low', 'high', 'low', 'high', 'low', 'high']",low,
,,224,1,001,20,f,r,test,,2,5,2,0.44961696895924486,,1,False,1.2283438000595197,False,img_A,img_A,,8.446500286658555,1528.8165518851986,132.34053080031018,488,[np.int64(945)],,,,,,low,0.44961696895924486,1,dough_19s,pocket_01b,11,21,31,41,1,001,20,f,r,0.44961696895924486,True,0.7629446568996856,False,"['low', 'high', 'low', 'high', 'low', 'high']",low,
,,225,1,001,20,f,r,test,,2,5,3,0.44961696895924486,,1,False,0.9972107999492437,False,img_B,img_B,,7.438064558497439,1346.2896850880365,336.8594429365478,839,[np.int64(1261)],,,,,,low,0.44961696895924486,1,squeegee_10s,flipper_12s,11,21,31,41,1,001,20,f,r,0.44961696895924486,True,0.7629446568996856,False,"['low', 'high', 'low', 'high', 'low', 'high']",low,
,,226,1,001,20,f,r,test,,2,5,4,0.44961696895924486,,1,False,1.09466209996026,False,img_B,img_B,,7.082835677121988,1281.99325755908,146.7366582337654,583,[np.int64(788)],,,,,,low,0.44961696895924486,1,gearshift_03n,pencil_sharpener_11s,11,21,31,41,1,001,20,f,r,0.44961696895924486,True,0.7629446568996856,False,"['low', 'high', 'low', 'high', 'low', 'high']",low,
,,227,1,001,20,f,r,test,,2,5,5,0.44961696895924486,,1,False,1.1302050000522286,False,img_A,img_A,,6.940092433748578,1256.1567305084927,150.4407966187712,1242,[np.int64(5)],,,,,,low,0.44961696895924486,2,hairdryer_06s,sweeper_02s,11,21,31,41,1,001,20,f,r,0.44961696895924486,True,0.7629446568996856,False,"['low', 'high', 'low', 'high', 'low', 'high']",low,
,,228,1,001,20,f,r,test,,2,5,6,0.44961696895924486,,1,False,0.9637814000016078,False,img_A,img_A,,7.876193029043427,1425.5909382568602,297.14383237272915,669,[np.int64(798)],,,,,,low,0.44961696895924486,2,spacesuit_06s,hairbrush_12s,11,21,31,41,1,001,20,f,r,0.44961696895924486,True,0.7629446568996856,False,"['low', 'high', 'low', 'high', 'low', 'high']",low,
,,229,1,001,20,f,r,test,,2,5,7,0.44961696895924486,,1,False,1.314071899978444,False,img_A,img_A,,6.439032863482996,1165.4649482904224,287.96485564873655,696,[np.int64(1573)],,,,,,low,0.44961696895924486,2,sauerkraut_03s,snack_12s,11,21,31,41,1,001,20,f,r,0.44961696895924486,True,0.7629446568996856,False,"['low', 'high', 'low', 'high', 'low', 'high']",low,
,,230,1,001,20,f,r,test,,2,5,8,0.44961696895924486,,1,False,0.9917978000594303,False,img_B,img_B,,5.877477149286648,1063.8233640208832,332.5340762681289,815,[np.int64(588)],,,,,,low,0.44961696895924486,1,bunkbed_06s,coin_03s,11,21,31,41,1,001,20,f,r,0.44961696895924486,True,0.7629446568996856,False,"['low', 'high', 'low', 'high', 'low', 'high']",low,
,,231,1,001,20,f,r,test,,2,5,9,0.44961696895924486,,1,False,1.0983843000140041,False,img_B,img_B,,8.925706566201338,1615.552888482442,337.1065056116167,1345,[np.int64(860)],,,,,,low,0.44961696895924486,1,boxer_shorts_03s,nightshirt_01b,11,21,31,41,1,001,20,f,r,0.44961696895924486,True,0.7629446568996856,False,"['low', 'high', 'low', 'high', 'low', 'high']",low,
,,232,1,001,20,f,r,test,,2,5,10,0.44961696895924486,,1,False,1.0481271999888122,False,img_B,img_B,,7.873043223854853,1425.0208235177283,175.95211579631047,1002,[np.int64(3)],,,,,,low,0.44961696895924486,2,wrench_03s,pizza_03s,11,21,31,41,1,001,20,f,r,0.44961696895924486,True,0.7629446568996856,False,"['low', 'high', 'low', 'high', 'low', 'high']",low,
,,233,1,001,20,f,r,test,,2,5,11,0.44961696895924486,,1,False,0.9784992999630049,False,img_B,img_B,,7.926960864332008,1434.7799164440935,217.3454627908315,185,[np.int64(987)],,,,,,low,0.44961696895924486,3,waffle_06s,gyro_07s,11,21,31,41,1,001,20,f,r,0.44961696895924486,True,0.7629446568996856,False,"['low', 'high', 'low', 'high', 'low', 'high']",low,
,,234,1,001,20,f,r,test,,2,5,12,0.44961696895924486,,1,False,1.1782070000190288,False,img_B,img_B,,7.692537658350242,1392.3493161613937,252.7046065969222,759,[np.int64(186)],,,,,,low,0.44961696895924486,1,headset_03s,frisbee_04s,11,21,31,41,1,001,20,f,r,0.44961696895924486,True,0.7629446568996856,False,"['low', 'high', 'low', 'high', 'low', 'high']",low,
,,235,1,001,20,f,r,test,,2,5,13,0.44961696895924486,,1,False,1.1299674999900162,False,img_B,img_B,,6.913111888869229,1251.2732518853304,183.32385119957414,704,[np.int64(1524)],,,,,,low,0.44961696895924486,1,faucet_09s,dumpster_02s,11,21,31,41,1,001,20,f,r,0.44961696895924486,True,0.7629446568996856,False,"['low', 'high', 'low', 'high', 'low', 'high']",low,
,,236,1,001,20,f,r,test,,2,5,14,0.44961696895924486,,1,False,1.063501900061965,False,img_A,img_A,,8.226751106656819,1489.0419503048843,176.4702315940252,963,[np.int64(510)],,,,,,low,0.44961696895924486,1,ice_cream_08s,mushroom_08n,11,21,31,41,1,001,20,f,r,0.44961696895924486,True,0.7629446568996856,False,"['low', 'high', 'low', 'high', 'low', 'high']",low,
,,237,1,001,20,f,r,test,,2,5,15,0.44961696895924486,,1,False,0.9806512000504881,False,img_A,img_A,,6.708101090991581,1214.1662974694761,253.23660685319132,470,[np.int64(1251)],,,,,,low,0.44961696895924486,1,peanut_butter_07s,mashed_potato_05s,11,21,31,41,1,001,20,f,r,0.44961696895924486,True,0.7629446568996856,False,"['low', 'high', 'low', 'high', 'low', 'high']",low,
,,238,1,001,20,f,r,test,,2,5,16,0.44961696895924486,,1,False,1.1300225000595674,False,img_B,img_B,,7.881212285789906,1426.499423727973,297.09473759552463,921,[np.int64(538)],,,,,,low,0.44961696895924486,1,bowtie_14s,sleeping_bag_12s,11,21,31,41,1,001,20,f,r,0.44961696895924486,True,0.7629446568996856,False,"['low', 'high', 'low', 'high', 'low', 'high']",low,
,,239,1,001,20,f,r,test,,2,5,17,0.44961696895924486,,1,False,1.0460107000544667,False,img_A,img_A,,6.600789332731234,1194.7428692243534,103.97865556222172,1404,[np.int64(1435)],,,,,,low,0.44961696895924486,1,sandbox_10s,footprint_11s,11,21,31,41,1,001,20,f,r,0.44961696895924486,True,0.7629446568996856,False,"['low', 'high', 'low', 'high', 'low', 'high']",low,
,,240,1,001,20,f,r,test,,2,5,18,0.44961696895924486,,1,False,0.9773948000511155,False,img_B,img_B,,5.770913629539084,1044.5353669465742,178.81996727775677,235,[np.int64(308)],,,,,,low,0.44961696895924486,1,toothbrush_01s,lanyard_13s,11,21,31,41,1,001,20,f,r,0.44961696895924486,True,0.7629446568996856,False,"['low', 'high', 'low', 'high', 'low', 'high']",low,
,,241,1,001,20,f,r,test,,2,5,19,0.44961696895924486,,1,False,1.280581000028178,False,img_B,img_B,,5.729172680804165,1036.980255225554,262.40303901655153,916,[np.int64(387)],,,,,,low,0.44961696895924486,1,canoe_06s,pug_19s,11,21,31,41,1,001,20,f,r,0.44961696895924486,True,0.7629446568996856,False,"['low', 'high', 'low', 'high', 'low', 'high']",low,
,,242,1,001,20,f,r,test,,2,5,20,0.44961696895924486,,1,False,1.0633732000133023,False,img_A,img_A,,6.300850729347561,1140.4539820119085,356.63984530796944,1128,[np.int64(266)],,,,,,low,0.44961696895924486,2,cross_14s,salami_08s,11,21,31,41,1,001,20,f,r,0.44961696895924486,True,0.7629446568996856,False,"['low', 'high', 'low', 'high', 'low', 'high']",low,
,,243,1,001,20,f,r,test,,2,6,1,0.7629446568996856,,1,False,0.8802321000257507,False,img_B,img_B,,15.35218869671932,2778.746154106197,138.65496994348652,1112,[np.int64(32)],,,,,,high,0.7629446568996856,5,shears_04s,drumstick_12s,13,23,33,41,1,001,20,f,r,0.44961696895924486,True,0.7629446568996856,False,"['low', 'high', 'low', 'high', 'low', 'high']",low,
,,244,1,001,20,f,r,test,,2,6,2,0.7629446568996856,,1,False,0.8093884000554681,False,img_B,img_B,,16.885303348440615,3056.2399060677517,179.23067302003133,261,[np.int64(1132)],,,,,,high,0.7629446568996856,5,tack_01b,worm_06s,13,23,33,41,1,001,20,f,r,0.44961696895924486,True,0.7629446568996856,False,"['low', 'high', 'low', 'high', 'low', 'high']",low,
,,245,1,001,20,f,r,test,,2,6,3,0.7629446568996856,,1,False,1.262702599982731,False,img_A,img_A,,16.472968362034408,2981.607273528228,219.4755164250199,575,[np.int64(295)],,,,,,high,0.7629446568996856,4,elephant_07n,green_beans_12s,13,23,33,41,1,001,20,f,r,0.44961696895924486,True,0.7629446568996856,False,"['low', 'high', 'low', 'high', 'low', 'high']",low,
,,246,1,001,20,f,r,test,,2,6,4,0.7629446568996856,,1,False,0.9114190000109375,False,img_A,img_A,,17.06087250126203,3088.017922728427,206.33004699574434,908,[np.int64(664)],,,,,,high,0.7629446568996856,5,tattoo_12s,shark_07s,13,23,33,41,1,001,20,f,r,0.44961696895924486,True,0.7629446568996856,False,"['low', 'high', 'low', 'high', 'low', 'high']",low,
,,247,1,001,20,f,r,test,,2,6,5,0.7629446568996856,,1,False,0.9282505000010133,False,img_A,img_A,,15.750878220377425,2850.908957888314,186.61403854353273,428,[np.int64(352)],,,,,,high,0.7629446568996856,4,swab_14s,eggshell_12s,13,23,33,41,1,001,20,f,r,0.44961696895924486,True,0.7629446568996856,False,"['low', 'high', 'low', 'high', 'low', 'high']",low,
,,248,1,001,20,f,r,test,,2,6,6,0.7629446568996856,,1,False,0.860836400068365,False,img_B,img_B,,16.067869076088886,2908.2843027720887,188.75212222100023,976,[np.int64(366)],,,,,,high,0.7629446568996856,5,skewer_01b,pretzel_07s,13,23,33,41,1,001,20,f,r,0.44961696895924486,True,0.7629446568996856,False,"['low', 'high', 'low', 'high', 'low', 'high']",low,
,,249,1,001,20,f,r,test,,2,6,7,0.7629446568996856,,1,False,1.044888100004755,False,img_B,img_B,,16.153081664696423,2923.7077813100523,198.03464796536468,1483,[np.int64(485)],,,,,,high,0.7629446568996856,4,keyboard_07s,kangaroo_11s,13,23,33,41,1,001,20,f,r,0.44961696895924486,True,0.7629446568996856,False,"['low', 'high', 'low', 'high', 'low', 'high']",low,
,,250,1,001,20,f,r,test,,2,6,8,0.7629446568996856,,1,False,1.0646179999457672,False,img_B,img_B,,14.308815485724862,2589.8956029162,168.55299787979547,591,[np.int64(178)],,,,,,high,0.7629446568996856,5,grater_03s,polo_shirt_04s,13,23,33,41,1,001,20,f,r,0.44961696895924486,True,0.7629446568996856,False,"['low', 'high', 'low', 'high', 'low', 'high']",low,
,,251,1,001,20,f,r,test,,2,6,9,0.7629446568996856,,1,False,1.063249700004235,False,img_B,img_B,,17.815938697586354,3224.68490426313,230.20627217413002,787,[np.int64(1151)],,,,,,high,0.7629446568996856,4,costume_04s,blindfold_15s,13,23,33,41,1,001,20,f,r,0.44961696895924486,True,0.7629446568996856,False,"['low', 'high', 'low', 'high', 'low', 'high']",low,
,,252,1,001,20,f,r,test,,2,6,10,0.7629446568996856,,1,False,0.9784839999629185,False,img_B,img_B,,16.19665139312001,2931.593902154722,222.26412517616998,476,[np.int64(1350)],,,,,,high,0.7629446568996856,5,creme_brulee_10s,filing_cabinet_07s,13,23,33,41,1,001,20,f,r,0.44961696895924486,True,0.7629446568996856,False,"['low', 'high', 'low', 'high', 'low', 'high']",low,
,,253,1,001,20,f,r,test,,2,6,11,0.7629446568996856,,1,False,0.838969299918972,False,img_A,img_A,,13.618637746199518,2464.973432062113,202.80704155807402,1047,[np.int64(1012)],,,,,,high,0.7629446568996856,5,zebra_11s,cookie_11s,13,23,33,41,1,001,20,f,r,0.44961696895924486,True,0.7629446568996856,False,"['low', 'high', 'low', 'high', 'low', 'high']",low,
,,254,1,001,20,f,r,test,,2,6,12,0.7629446568996856,,1,False,0.82985830004327,False,img_B,img_B,,12.33230447539075,2232.1471100457256,167.62991026612957,219,[np.int64(1382)],,,,,,high,0.7629446568996856,5,undershirt_12s,trap_03s,13,23,33,41,1,001,20,f,r,0.44961696895924486,True,0.7629446568996856,False,"['low', 'high', 'low', 'high', 'low', 'high']",low,
,,255,1,001,20,f,r,test,,2,6,13,0.7629446568996856,,1,False,1.030285199987702,False,img_B,img_B,,15.506760347232527,2806.7236228490874,191.31693934452622,1110,[np.int64(1470)],,,,,,high,0.7629446568996856,4,clipper2_05s,saltshaker_07s,13,23,33,41,1,001,20,f,r,0.44961696895924486,True,0.7629446568996856,False,"['low', 'high', 'low', 'high', 'low', 'high']",low,
,,256,1,001,20,f,r,test,,2,6,14,0.7629446568996856,,1,False,1.0799184000352398,False,img_A,img_A,,13.349722166549775,2416.299712145509,197.3326753584471,198,[np.int64(719)],,,,,,high,0.7629446568996856,6,bracelet1_05s,barrette_01b,13,23,33,41,1,001,20,f,r,0.44961696895924486,True,0.7629446568996856,False,"['low', 'high', 'low', 'high', 'low', 'high']",low,
,,257,1,001,20,f,r,test,,2,6,15,0.7629446568996856,,1,False,1.0811700999038294,False,img_A,img_A,,14.151492724414487,2561.420183119022,178.6259341038244,1531,[np.int64(1127)],,,,,,high,0.7629446568996856,5,dalmatian_10s,pacifier_07s,13,23,33,41,1,001,20,f,r,0.44961696895924486,True,0.7629446568996856,False,"['low', 'high', 'low', 'high', 'low', 'high']",low,
,,258,1,001,20,f,r,test,,2,6,16,0.7629446568996856,,1,False,0.9437684000004083,False,img_A,img_A,,14.51098493018259,2626.4882723630485,219.04623107600796,1385,[np.int64(1098)],,,,,,high,0.7629446568996856,5,cornhusk_12s,meatball_16s,13,23,33,41,1,001,20,f,r,0.44961696895924486,True,0.7629446568996856,False,"['low', 'high', 'low', 'high', 'low', 'high']",low,
,,259,1,001,20,f,r,test,,2,6,17,0.7629446568996856,,1,False,1.1134751999052241,False,img_A,img_A,,14.424903726499213,2610.9075744963575,216.39996930391365,699,[np.int64(1056)],,,,,,high,0.7629446568996856,5,nutcracker_03s,locker_08s,13,23,33,41,1,001,20,f,r,0.44961696895924486,True,0.7629446568996856,False,"['low', 'high', 'low', 'high', 'low', 'high']",low,
,,260,1,001,20,f,r,test,,2,6,18,0.7629446568996856,,1,False,0.9304518999997526,False,img_B,img_B,,13.52325301366065,2447.7087954725775,198.9713897755179,1235,[np.int64(311)],,,,,,high,0.7629446568996856,4,pallet_10s,fingerprint_12s,13,23,33,41,1,001,20,f,r,0.44961696895924486,True,0.7629446568996856,False,"['low', 'high', 'low', 'high', 'low', 'high']",low,
,,261,1,001,20,f,r,test,,2,6,19,0.7629446568996856,,1,False,0.9133278999943286,False,img_B,img_B,,15.116549125152796,2736.095391652656,158.5578720164966,849,[np.int64(785)],,,,,,high,0.7629446568996856,6,staple_01b,chick_06s,13,23,33,41,1,001,20,f,r,0.44961696895924486,True,0.7629446568996856,False,"['low', 'high', 'low', 'high', 'low', 'high']",low,
,,262,1,001,20,f,r,test,,2,6,20,0.7629446568996856,,1,False,1.065559500013478,False,img_A,img_A,,15.886782926752256,2875.507709742158,197.65101517073006,164,[np.int64(1189)],,,,,,high,0.7629446568996856,4,cookie_cutter_02s,peppermint_10s,13,23,33,41,1,001,20,f,r,0.44961696895924486,True,0.7629446568996856,False,"['low', 'high', 'low', 'high', 'low', 'high']",low,
