participant,session,age,gender,handedness,phase,overall_trial_num,trial_in_block,mem_filename,mem_ground_truth,controlled,trial_level,item_type,mem_response,mem_rt,mem_trigger_onset,mem_trigger_resp
4,001,27,m,r,memory_test,244,1,garlic_05s,seen,no,high,uncontrolled,no,1.8738365001045167,51,62
4,001,27,m,r,memory_test,245,2,air_mattress_13s,unseen,,,,no,2.0977802998386323,52,61
4,001,27,m,r,memory_test,246,3,boa_11s,unseen,,,,no,2.421961500076577,52,61
4,001,27,m,r,memory_test,247,4,suit_06s,seen,no,low,uncontrolled,no,3.451934899901971,51,62
4,001,27,m,r,memory_test,248,5,cat_01b,seen,yes,high,controlled,yes,15.577525000087917,51,61
4,001,27,m,r,memory_test,249,6,wooden_leg_02s,seen,yes,low,controlled,yes,3.920893399976194,51,61
4,001,27,m,r,memory_test,250,7,bowtie_14s,seen,no,low,uncontrolled,no,1.8729886999353766,51,62
4,001,27,m,r,memory_test,251,8,bowling_ball_01b,seen,yes,low,controlled,no,1.1815975001081824,51,62
4,001,27,m,r,memory_test,252,9,headset_03s,seen,yes,low,controlled,no,1.3800262999720871,51,62
4,001,27,m,r,memory_test,253,10,mashed_potato_05s,seen,yes,high,controlled,no,1.6094663001131266,51,62
4,001,27,m,r,memory_test,254,11,goat_08s,unseen,,,,no,1.1568812998011708,52,61
4,001,27,m,r,memory_test,255,12,fingerprint_02s,unseen,,,,no,1.1641911999322474,52,61
4,001,27,m,r,memory_test,256,13,iceskate_07s,unseen,,,,yes,3.2766382000409067,52,62
4,001,27,m,r,memory_test,257,14,pencil_sharpener_10s,unseen,,,,no,1.2003479001577944,52,61
4,001,27,m,r,memory_test,258,15,step_stool_11s,seen,no,low,uncontrolled,no,0.9483755000401288,51,62
4,001,27,m,r,memory_test,259,16,shark_07s,seen,yes,low,controlled,no,3.368031500140205,51,62
4,001,27,m,r,memory_test,260,17,bean_04s,seen,no,high,uncontrolled,no,3.1761166001670063,51,62
4,001,27,m,r,memory_test,261,18,nutcracker_03s,seen,no,high,uncontrolled,yes,0.8011337998323143,51,61
4,001,27,m,r,memory_test,262,19,light_switch_10s,unseen,,,,no,0.8940632999874651,52,61
4,001,27,m,r,memory_test,263,20,nightshirt_08s,unseen,,,,no,1.0473586001899093,52,61
4,001,27,m,r,memory_test,264,21,sequin_06s,seen,no,high,uncontrolled,no,1.0151192999910563,51,62
4,001,27,m,r,memory_test,265,22,ice_cream_08s,seen,no,low,uncontrolled,yes,0.7913061999715865,51,61
4,001,27,m,r,memory_test,266,23,cookie_cutter_10s,unseen,,,,no,5.6227075001224875,52,61
4,001,27,m,r,memory_test,267,24,quiche_14s,unseen,,,,no,3.6681884999852628,52,61
4,001,27,m,r,memory_test,268,25,dalmatian_01b,unseen,,,,no,0.7362867998890579,52,61
4,001,27,m,r,memory_test,269,26,crutch_01b,seen,yes,low,controlled,no,1.8032082000281662,51,62
4,001,27,m,r,memory_test,270,27,beanbag_13s,unseen,,,,no,0.9277086998336017,52,61
4,001,27,m,r,memory_test,271,28,peppermint_10s,seen,no,low,uncontrolled,no,1.0574633998330683,51,62
4,001,27,m,r,memory_test,272,29,salami_08s,seen,yes,high,controlled,no,1.5853938998188823,51,62
4,001,27,m,r,memory_test,273,30,air_mattress_03s,seen,yes,high,controlled,no,3.0265174000523984,51,62
4,001,27,m,r,memory_test,274,31,worm_08n,unseen,,,,no,2.250158099923283,52,61
4,001,27,m,r,memory_test,275,32,cashew_07s,unseen,,,,no,1.6335360000375658,52,61
4,001,27,m,r,memory_test,276,33,squeegee_10s,seen,no,high,uncontrolled,yes,0.7851923999842256,51,61
4,001,27,m,r,memory_test,277,34,pantsuit_07s,seen,yes,high,controlled,no,1.7755634998902678,51,62
4,001,27,m,r,memory_test,278,35,glove_15s,unseen,,,,no,0.7957164999097586,52,61
4,001,27,m,r,memory_test,279,36,locker_08s,seen,yes,high,controlled,no,1.2108463000040501,51,62
4,001,27,m,r,memory_test,280,37,bowtie_05s,unseen,,,,no,1.2603844001423568,52,61
4,001,27,m,r,memory_test,281,38,juicer1_09s,unseen,,,,no,0.9174357000738382,52,61
4,001,27,m,r,memory_test,282,39,green_beans_12s,seen,no,low,uncontrolled,no,1.6939532000105828,51,62
4,001,27,m,r,memory_test,283,40,domino_02s,seen,no,high,uncontrolled,yes,2.8331144000403583,51,61
4,001,27,m,r,memory_test,284,41,tattoo_04s,unseen,,,,no,1.420554099837318,52,61
4,001,27,m,r,memory_test,285,42,lanyard_03s,unseen,,,,no,1.4546441999264061,52,61
4,001,27,m,r,memory_test,286,43,hydrant_12s,unseen,,,,no,1.2144818999804556,52,61
4,001,27,m,r,memory_test,287,44,cross_14s,seen,yes,high,controlled,yes,0.8825453999452293,51,61
4,001,27,m,r,memory_test,288,45,vacuum_09s,unseen,,,,no,1.938677999889478,52,61
4,001,27,m,r,memory_test,289,46,undershirt_04s,unseen,,,,no,0.9368041998241097,52,61
4,001,27,m,r,memory_test,290,47,hamster_13s,unseen,,,,no,2.366609600139782,52,61
4,001,27,m,r,memory_test,291,48,diamond_16s,unseen,,,,no,0.6193506999406964,52,61
4,001,27,m,r,memory_test,292,49,crouton_07s,unseen,,,,no,2.9408715998288244,52,61
4,001,27,m,r,memory_test,293,50,sweeper_07s,unseen,,,,no,1.2711935001425445,52,61
4,001,27,m,r,memory_test,294,51,yarn_10s,unseen,,,,no,0.906922500114888,52,61
4,001,27,m,r,memory_test,295,52,lighter_03s,unseen,,,,no,1.2903804001398385,52,61
4,001,27,m,r,memory_test,296,53,sweeper_02s,seen,no,high,uncontrolled,no,1.892810800112784,51,62
4,001,27,m,r,memory_test,297,54,asparagus_07s,seen,no,high,uncontrolled,yes,0.6613177000544965,51,61
4,001,27,m,r,memory_test,298,55,cloak_13s,unseen,,,,no,1.5102963999379426,52,61
4,001,27,m,r,memory_test,299,56,nutcracker_11s,unseen,,,,no,1.1059746998362243,52,61
4,001,27,m,r,memory_test,300,57,lollipop_06n,seen,no,low,uncontrolled,no,0.7058252000715584,51,62
4,001,27,m,r,memory_test,301,58,asparagus_04s,unseen,,,,no,1.1259079000446945,52,61
4,001,27,m,r,memory_test,302,59,pumpkin_16s,seen,no,high,uncontrolled,no,1.1770182000473142,51,62
4,001,27,m,r,memory_test,303,60,doorknocker_04s,unseen,,,,no,1.005407800199464,52,61
4,001,27,m,r,memory_test,304,61,pickle_13s,seen,no,high,uncontrolled,no,0.8026694001164287,51,62
4,001,27,m,r,memory_test,305,62,pinball_02s,seen,no,low,uncontrolled,no,2.29679899988696,51,62
4,001,27,m,r,memory_test,306,63,puppy_07s,unseen,,,,no,2.293743999907747,52,61
4,001,27,m,r,memory_test,307,64,sandbox_10s,seen,yes,high,controlled,yes,3.27743580006063,51,61
4,001,27,m,r,memory_test,308,65,mushroom_07n,unseen,,,,no,0.7665732998866588,52,61
4,001,27,m,r,memory_test,309,66,bunkbed_06s,seen,yes,high,controlled,yes,2.2848739998880774,51,61
4,001,27,m,r,memory_test,310,67,grater_12s,unseen,,,,no,0.8223198000341654,52,61
4,001,27,m,r,memory_test,311,68,wrench_03s,seen,yes,high,controlled,yes,1.1426132000051439,51,61
4,001,27,m,r,memory_test,312,69,mulberry_02s,seen,yes,high,controlled,yes,1.2715720999985933,51,61
4,001,27,m,r,memory_test,313,70,faucet_09s,seen,yes,low,controlled,yes,1.960448799887672,51,61
4,001,27,m,r,memory_test,314,71,undershirt_12s,seen,yes,high,controlled,no,2.8313629999756813,51,62
4,001,27,m,r,memory_test,315,72,bubble_wrap_05s,unseen,,,,no,0.9154109000228345,52,61
4,001,27,m,r,memory_test,316,73,juicer1_06s,seen,yes,high,controlled,no,1.4500329999718815,51,62
4,001,27,m,r,memory_test,317,74,puppy_06s,seen,yes,low,controlled,no,2.6260294001549482,51,62
4,001,27,m,r,memory_test,318,75,float_07s,unseen,,,,no,5.274783300003037,52,61
4,001,27,m,r,memory_test,319,76,chopsticks_04s,seen,no,high,uncontrolled,yes,2.1745144999586046,51,61
4,001,27,m,r,memory_test,320,77,avocado_01b,unseen,,,,no,0.834690900053829,52,61
4,001,27,m,r,memory_test,321,78,headband_09s,seen,yes,high,controlled,yes,0.8440598999150097,51,61
4,001,27,m,r,memory_test,322,79,bunkbed_13s,unseen,,,,no,2.0717601999640465,52,61
4,001,27,m,r,memory_test,323,80,toad_06s,seen,yes,high,controlled,yes,0.7410389001015574,51,61
4,001,27,m,r,memory_test,324,81,dishrag_10s,seen,no,high,uncontrolled,yes,1.1346756999846548,51,61
4,001,27,m,r,memory_test,325,82,waffle_iron_03s,unseen,,,,no,0.8898534001782537,52,61
4,001,27,m,r,memory_test,326,83,ketchup_15s,seen,no,high,uncontrolled,yes,1.1872928999364376,51,61
4,001,27,m,r,memory_test,327,84,avocado_13s,seen,yes,low,controlled,yes,1.146488199941814,51,61
4,001,27,m,r,memory_test,328,85,jelly_bean_13n,seen,yes,high,controlled,no,1.075856499839574,51,62
4,001,27,m,r,memory_test,329,86,butter_14s,seen,yes,high,controlled,no,0.7867939998395741,51,62
4,001,27,m,r,memory_test,330,87,sewage_09s,seen,yes,low,controlled,no,1.2210181998088956,51,62
4,001,27,m,r,memory_test,331,88,eggshell_10s,unseen,,,,no,2.1180306000169367,52,61
4,001,27,m,r,memory_test,332,89,snorkel_09s,seen,yes,high,controlled,yes,3.3875049999915063,51,61
4,001,27,m,r,memory_test,333,90,lab_coat_04s,seen,no,low,uncontrolled,no,0.876256600022316,51,62
4,001,27,m,r,memory_test,334,91,bib_15n,unseen,,,,no,1.0076089999638498,52,61
4,001,27,m,r,memory_test,335,92,garlic_03s,unseen,,,,no,2.0463604000397027,52,61
4,001,27,m,r,memory_test,336,93,breadstick_14s,seen,yes,high,controlled,yes,0.8461571999359876,51,61
4,001,27,m,r,memory_test,337,94,cauliflower_15s,unseen,,,,no,0.8106292001903057,52,61
4,001,27,m,r,memory_test,338,95,tack_01b,seen,yes,low,controlled,no,0.8822153001092374,51,62
4,001,27,m,r,memory_test,339,96,goat_02n,seen,yes,low,controlled,yes,0.7985038000624627,51,61
4,001,27,m,r,memory_test,340,97,worm_06s,seen,no,low,uncontrolled,yes,0.8256531001534313,51,61
4,001,27,m,r,memory_test,341,98,football_helmet_05s,seen,no,low,uncontrolled,no,0.6910916999913752,51,62
4,001,27,m,r,memory_test,342,99,hamburger_10s,unseen,,,,yes,1.9228813000954688,52,62
4,001,27,m,r,memory_test,343,100,dumpster_10s,unseen,,,,no,0.6407789001241326,52,61
4,001,27,m,r,memory_test,344,101,quesadilla_06s,unseen,,,,yes,4.832032900070772,52,62
4,001,27,m,r,memory_test,345,102,polo_shirt_11s,unseen,,,,no,2.778366799931973,52,61
4,001,27,m,r,memory_test,346,103,punching_bag_12s,seen,no,low,uncontrolled,no,0.7133806999772787,51,62
4,001,27,m,r,memory_test,347,104,macaroni_11s,seen,yes,high,controlled,yes,0.7612801000941545,51,61
4,001,27,m,r,memory_test,348,105,mushroom_08n,seen,no,low,uncontrolled,no,3.8698589000850916,51,62
4,001,27,m,r,memory_test,349,106,snack_12s,seen,no,high,uncontrolled,no,0.7639815998263657,51,62
4,001,27,m,r,memory_test,350,107,bedpan_08s,unseen,,,,no,1.0401859001722187,52,61
4,001,27,m,r,memory_test,351,108,tomato_sauce_14s,unseen,,,,no,1.083436599932611,52,61
4,001,27,m,r,memory_test,352,109,barrette_09s,unseen,,,,yes,1.0669317001011223,52,62
4,001,27,m,r,memory_test,353,110,quiche_07s,seen,no,high,uncontrolled,yes,1.5326884998939931,51,61
4,001,27,m,r,memory_test,354,111,keyboard_04s,unseen,,,,no,1.0742258001118898,52,61
4,001,27,m,r,memory_test,355,112,paintbrush_12s,seen,yes,low,controlled,no,0.8175536000635475,51,62
4,001,27,m,r,memory_test,356,113,spider_web_14s,seen,yes,high,controlled,no,0.6281288999598473,51,62
4,001,27,m,r,memory_test,357,114,sorbet_04s,unseen,,,,no,1.5240545000415295,52,61
4,001,27,m,r,memory_test,358,115,egg_roll_06s,unseen,,,,no,0.948193300049752,52,61
4,001,27,m,r,memory_test,359,116,cloak_12s,seen,no,high,uncontrolled,no,1.4840007999446243,51,62
4,001,27,m,r,memory_test,360,117,grapefruit_09s,seen,no,high,uncontrolled,no,0.6173302000388503,51,62
4,001,27,m,r,memory_test,361,118,brush_04s,seen,no,high,uncontrolled,no,1.6870951000601053,51,62
4,001,27,m,r,memory_test,362,119,limousine_10s,unseen,,,,no,1.0418670000508428,52,61
4,001,27,m,r,memory_test,363,120,meatball_16s,seen,no,high,uncontrolled,no,0.73948820005171,51,62
4,001,27,m,r,memory_test,364,121,pocket_08s,unseen,,,,no,0.7266980998683721,52,61
4,001,27,m,r,memory_test,365,122,pet_food_04s,seen,yes,high,controlled,no,1.051329700043425,51,62
4,001,27,m,r,memory_test,366,123,salami_13s,unseen,,,,no,1.4345549000427127,52,61
4,001,27,m,r,memory_test,367,124,soap_09s,unseen,,,,no,0.7191353999078274,52,61
4,001,27,m,r,memory_test,368,125,praying_mantis_20s,seen,no,high,uncontrolled,yes,0.7824756000190973,51,61
4,001,27,m,r,memory_test,369,126,cashew_02s,seen,yes,low,controlled,no,0.9070635000243783,51,62
4,001,27,m,r,memory_test,370,127,zebra_14s,unseen,,,,no,0.8287285999394953,52,61
4,001,27,m,r,memory_test,371,128,swordfish_08s,seen,no,low,uncontrolled,no,2.011638999916613,51,62
4,001,27,m,r,memory_test,372,129,creme_brulee_10s,seen,yes,high,controlled,yes,0.9061977998353541,51,61
4,001,27,m,r,memory_test,373,130,bedpan_13s,seen,yes,high,controlled,yes,2.352332100039348,51,61
4,001,27,m,r,memory_test,374,131,celery_08n,unseen,,,,no,0.8832251999992877,52,61
4,001,27,m,r,memory_test,375,132,dip_11s,unseen,,,,no,4.289432199904695,52,61
4,001,27,m,r,memory_test,376,133,punching_bag_09s,unseen,,,,no,0.6681074998341501,52,61
4,001,27,m,r,memory_test,377,134,glove_13s,seen,no,high,uncontrolled,no,0.5992604999337345,51,62
4,001,27,m,r,memory_test,378,135,hairdryer_06s,seen,yes,low,controlled,yes,1.0554994998965412,51,61
4,001,27,m,r,memory_test,379,136,tube_top_10s,seen,no,low,uncontrolled,yes,3.472905799979344,51,61
4,001,27,m,r,memory_test,380,137,blindfold_15s,seen,yes,low,controlled,no,0.9054188998416066,51,62
4,001,27,m,r,memory_test,381,138,sloth_03s,seen,yes,high,controlled,no,0.740658399881795,51,62
4,001,27,m,r,memory_test,382,139,target_12s,unseen,,,,no,4.1759767001494765,52,61
4,001,27,m,r,memory_test,383,140,cheese_05n,seen,yes,low,controlled,no,1.8916789998766035,51,62
4,001,27,m,r,memory_test,384,141,hot_chocolate_12s,unseen,,,,no,3.4189828999806195,52,61
4,001,27,m,r,memory_test,385,142,dough_19s,seen,yes,low,controlled,no,1.3413432000670582,51,62
4,001,27,m,r,memory_test,386,143,ready_meal_11s,seen,yes,high,controlled,yes,1.196922899922356,51,61
4,001,27,m,r,memory_test,387,144,spacesuit_04s,unseen,,,,no,1.1018664001021534,52,61
4,001,27,m,r,memory_test,388,145,container_04s,seen,no,high,uncontrolled,no,1.0512542999349535,51,62
4,001,27,m,r,memory_test,389,146,paint_01b,unseen,,,,yes,3.835073299938813,52,62
4,001,27,m,r,memory_test,390,147,toothbrush_01s,seen,yes,low,controlled,no,0.6931437999010086,51,62
4,001,27,m,r,memory_test,391,148,ham_11s,unseen,,,,no,0.9746640999801457,52,61
4,001,27,m,r,memory_test,392,149,candy_cane_05s,seen,no,low,uncontrolled,yes,0.9162481999956071,51,61
4,001,27,m,r,memory_test,393,150,costume_08s,unseen,,,,yes,4.485546999843791,52,62
4,001,27,m,r,memory_test,394,151,saffron_14s,seen,yes,high,controlled,no,1.305933800060302,51,62
4,001,27,m,r,memory_test,395,152,sloth_02s,unseen,,,,yes,4.010819199960679,52,62
4,001,27,m,r,memory_test,396,153,sleeping_bag_02s,unseen,,,,no,0.8411084001418203,52,61
4,001,27,m,r,memory_test,397,154,ham_10s,seen,no,high,uncontrolled,yes,3.126255199778825,51,61
4,001,27,m,r,memory_test,398,155,dragonfly_11n,unseen,,,,no,0.9675994000863284,52,61
4,001,27,m,r,memory_test,399,156,hairbrush_12s,seen,no,low,uncontrolled,no,0.8128647999837995,51,62
4,001,27,m,r,memory_test,400,157,hairdryer_07s,unseen,,,,no,0.8978075999766588,52,61
4,001,27,m,r,memory_test,401,158,toilet_14n,seen,yes,low,controlled,yes,1.5888318999204785,51,61
4,001,27,m,r,memory_test,402,159,coaster_05s,seen,yes,high,controlled,yes,2.667154800146818,51,61
4,001,27,m,r,memory_test,403,160,koala_10s,seen,no,high,uncontrolled,no,3.3576263000722975,51,62
4,001,27,m,r,memory_test,404,161,waffle_06s,seen,no,high,uncontrolled,no,2.7273974001873285,51,62
4,001,27,m,r,memory_test,405,162,pajamas_13s,seen,no,high,uncontrolled,no,0.9891133999917656,51,62
4,001,27,m,r,memory_test,406,163,parfait_17s,unseen,,,,no,0.8881880000699311,52,61
4,001,27,m,r,memory_test,407,164,praying_mantis_04s,unseen,,,,no,0.8545596001204103,52,61
4,001,27,m,r,memory_test,408,165,target_14s,seen,yes,low,controlled,no,0.8223932001274079,51,62
4,001,27,m,r,memory_test,409,166,pallet_10s,seen,yes,high,controlled,no,0.7895404000300914,51,62
4,001,27,m,r,memory_test,410,167,jam_13s,seen,no,high,uncontrolled,no,0.9154926999472082,51,62
4,001,27,m,r,memory_test,411,168,sauerkraut_07s,unseen,,,,no,0.711226699873805,52,61
4,001,27,m,r,memory_test,412,169,taco_05s,seen,no,low,uncontrolled,no,0.822021400090307,51,62
4,001,27,m,r,memory_test,413,170,iceskate_14s,seen,no,high,uncontrolled,yes,1.987664399901405,51,61
4,001,27,m,r,memory_test,414,171,taco_01b,unseen,,,,yes,2.6266175000928342,52,62
4,001,27,m,r,memory_test,415,172,yarn_14s,seen,yes,low,controlled,no,0.7428592999931425,51,62
4,001,27,m,r,memory_test,416,173,wetsuit_03s,seen,yes,low,controlled,no,0.8577680001035333,51,62
4,001,27,m,r,memory_test,417,174,polo_shirt_04s,seen,no,low,uncontrolled,no,0.8996422998607159,51,62
4,001,27,m,r,memory_test,418,175,pacifier_04s,unseen,,,,no,2.796594399958849,52,61
4,001,27,m,r,memory_test,419,176,turf_07s,unseen,,,,no,0.9991795001551509,52,61
4,001,27,m,r,memory_test,420,177,drumstick_12s,seen,no,high,uncontrolled,no,3.8836294000502676,51,62
4,001,27,m,r,memory_test,421,178,mouthpiece_03s,unseen,,,,no,2.5079528000205755,52,61
4,001,27,m,r,memory_test,422,179,bean_09s,unseen,,,,no,1.0223664999939501,52,61
4,001,27,m,r,memory_test,423,180,canoe_09s,unseen,,,,no,0.835032100090757,52,61
4,001,27,m,r,memory_test,424,181,waffle_08s,unseen,,,,yes,2.438101900042966,52,62
4,001,27,m,r,memory_test,425,182,lollipop_08s,unseen,,,,no,0.7156829000450671,52,61
4,001,27,m,r,memory_test,426,183,pants_05s,unseen,,,,yes,0.8658036000560969,52,62
4,001,27,m,r,memory_test,427,184,pretzel_02s,unseen,,,,yes,1.00964910001494,52,62
4,001,27,m,r,memory_test,428,185,pepper2_01b,unseen,,,,no,0.9161060000769794,52,61
4,001,27,m,r,memory_test,429,186,giraffe_17s,unseen,,,,no,0.7739697000943124,52,61
4,001,27,m,r,memory_test,430,187,filing_cabinet_07s,seen,no,low,uncontrolled,no,0.7570951001252979,51,62
4,001,27,m,r,memory_test,431,188,celery_04s,seen,no,low,uncontrolled,no,0.7443568999879062,51,62
4,001,27,m,r,memory_test,432,189,eggshell_12s,seen,no,low,uncontrolled,no,1.3201142998877913,51,62
4,001,27,m,r,memory_test,433,190,tube_top_01b,unseen,,,,no,3.453688600100577,52,61
4,001,27,m,r,memory_test,434,191,taffy_07s,unseen,,,,no,1.0350222000852227,52,61
4,001,27,m,r,memory_test,435,192,boxer_shorts_03s,seen,no,low,uncontrolled,no,0.5821352999191731,51,62
4,001,27,m,r,memory_test,436,193,football_01b,seen,yes,low,controlled,no,0.8679535000119358,51,62
4,001,27,m,r,memory_test,437,194,cheesecake_13s,unseen,,,,yes,4.0505573998671025,52,62
4,001,27,m,r,memory_test,438,195,bowling_ball_17s,unseen,,,,no,0.7644452000968158,52,61
4,001,27,m,r,memory_test,439,196,batter_08s,unseen,,,,no,0.7819211999885738,52,61
4,001,27,m,r,memory_test,440,197,peppermint_02s,unseen,,,,no,1.5751640000380576,52,61
4,001,27,m,r,memory_test,441,198,mashed_potato_09s,unseen,,,,yes,0.7112236001994461,52,62
4,001,27,m,r,memory_test,442,199,clasp_03s,unseen,,,,no,0.7276575998403132,52,61
4,001,27,m,r,memory_test,443,200,trap_07s,unseen,,,,no,0.9738984999712557,52,61
4,001,27,m,r,memory_test,444,201,test_tube_06s,unseen,,,,no,0.9410351999104023,52,61
4,001,27,m,r,memory_test,445,202,cardinal_05s,seen,no,high,uncontrolled,no,1.9063806999474764,51,62
4,001,27,m,r,memory_test,446,203,snack_02s,unseen,,,,no,0.7174283999484032,52,61
4,001,27,m,r,memory_test,447,204,batter_04s,seen,no,low,uncontrolled,yes,1.1225680999923497,51,61
4,001,27,m,r,memory_test,448,205,hot_tub_07s,seen,no,high,uncontrolled,no,0.6632805000990629,51,62
4,001,27,m,r,memory_test,449,206,cornhusk_03s,unseen,,,,no,0.8884254998993129,52,61
4,001,27,m,r,memory_test,450,207,gearshift_03n,seen,yes,low,controlled,yes,0.8506281999871135,51,61
4,001,27,m,r,memory_test,451,208,domino_09s,unseen,,,,no,0.7702365999575704,52,61
4,001,27,m,r,memory_test,452,209,koala_12s,unseen,,,,yes,1.3074502998497337,52,62
4,001,27,m,r,memory_test,453,210,olive_08s,unseen,,,,no,0.699375499971211,52,61
4,001,27,m,r,memory_test,454,211,handbrake_03s,unseen,,,,no,0.9718923000618815,52,61
4,001,27,m,r,memory_test,455,212,pumpkin_19s,unseen,,,,no,2.9205978999380022,52,61
4,001,27,m,r,memory_test,456,213,sponge_06s,unseen,,,,no,0.8547649998217821,52,61
4,001,27,m,r,memory_test,457,214,staple_01b,seen,no,high,uncontrolled,no,1.8053790000267327,51,62
4,001,27,m,r,memory_test,458,215,lighter_08s,seen,no,low,uncontrolled,yes,1.6537655000574887,51,61
4,001,27,m,r,memory_test,459,216,badge_02s,unseen,,,,no,3.639045200077817,52,61
4,001,27,m,r,memory_test,460,217,dolphin_09n,seen,yes,high,controlled,no,2.1341550000943244,51,62
4,001,27,m,r,memory_test,461,218,pinball_09s,unseen,,,,no,0.8815985999535769,52,61
4,001,27,m,r,memory_test,462,219,skewer_01b,seen,no,low,uncontrolled,no,0.6534311000723392,51,62
4,001,27,m,r,memory_test,463,220,swab_14s,seen,no,high,uncontrolled,no,1.9435269001405686,51,62
4,001,27,m,r,memory_test,464,221,dough_04s,unseen,,,,no,1.7392299000639468,52,61
4,001,27,m,r,memory_test,465,222,egg_roll_07n,seen,yes,low,controlled,no,1.4099854999221861,51,62
4,001,27,m,r,memory_test,466,223,test_tube_12s,seen,yes,high,controlled,yes,1.3327646001707762,51,61
4,001,27,m,r,memory_test,467,224,cigarette_09s,seen,yes,low,controlled,no,0.8600957000162452,51,62
4,001,27,m,r,memory_test,468,225,rattle_12s,seen,yes,low,controlled,no,0.6319927999284118,51,62
4,001,27,m,r,memory_test,469,226,elephant_05n,unseen,,,,no,0.672319000121206,52,61
4,001,27,m,r,memory_test,470,227,sink_15n,unseen,,,,no,0.7577164999675006,52,61
4,001,27,m,r,memory_test,471,228,walrus_01b,unseen,,,,no,0.8177197000477463,52,61
4,001,27,m,r,memory_test,472,229,olive_04s,seen,no,high,uncontrolled,yes,3.3713706000708044,51,61
4,001,27,m,r,memory_test,473,230,green_beans_03s,unseen,,,,no,1.5681014000438154,52,61
4,001,27,m,r,memory_test,474,231,bubble_wrap_11s,seen,yes,high,controlled,no,3.8773190998472273,51,62
4,001,27,m,r,memory_test,475,232,butter_13s,unseen,,,,no,1.1891701999120414,52,61
4,001,27,m,r,memory_test,476,233,kimono_06s,unseen,,,,no,0.8829763999674469,52,61
4,001,27,m,r,memory_test,477,234,pug_21s,unseen,,,,no,0.9620519999880344,52,61
4,001,27,m,r,memory_test,478,235,jumpsuit_07s,seen,yes,low,controlled,no,1.1814712001942098,51,62
4,001,27,m,r,memory_test,479,236,parfait_20s,seen,yes,low,controlled,yes,5.745676700025797,51,61
4,001,27,m,r,memory_test,480,237,brush_10s,unseen,,,,yes,1.6938020000234246,52,62
4,001,27,m,r,memory_test,481,238,pizza_03s,seen,no,high,uncontrolled,no,1.0306584001518786,51,62
4,001,27,m,r,memory_test,482,239,eggplant_05n,seen,no,high,uncontrolled,no,0.8377121000085026,51,62
4,001,27,m,r,memory_test,483,240,meatball_08s,unseen,,,,yes,2.738295800052583,52,62
4,001,27,m,r,memory_test,484,241,spider_web_13s,unseen,,,,yes,1.1970112000126392,52,62
4,001,27,m,r,memory_test,485,242,crouton_12s,seen,no,high,uncontrolled,no,0.6652387999929488,51,62
4,001,27,m,r,memory_test,486,243,zebra_11s,seen,yes,high,controlled,yes,1.9436502000316978,51,61
4,001,27,m,r,memory_test,487,244,cornhusk_12s,seen,no,low,uncontrolled,no,0.8108668001368642,51,62
4,001,27,m,r,memory_test,488,245,dumpster_02s,seen,no,high,uncontrolled,no,0.7721565999090672,51,62
4,001,27,m,r,memory_test,489,246,chopsticks_05s,unseen,,,,no,0.9227052999194711,52,61
4,001,27,m,r,memory_test,490,247,hairbrush_08s,unseen,,,,no,0.5982072001788765,52,61
4,001,27,m,r,memory_test,491,248,tack_09s,unseen,,,,no,0.8974942001514137,52,61
4,001,27,m,r,memory_test,492,249,memory_stick_05s,seen,no,low,uncontrolled,no,2.0101408001501113,51,62
4,001,27,m,r,memory_test,493,250,wrench_04s,unseen,,,,yes,2.8798400999512523,52,62
4,001,27,m,r,memory_test,494,251,wetsuit_01b,unseen,,,,no,0.8403326000552624,52,61
4,001,27,m,r,memory_test,495,252,pencil_sharpener_11s,seen,no,high,uncontrolled,no,0.6979489999357611,51,62
4,001,27,m,r,memory_test,496,253,mulberry_14s,unseen,,,,no,1.0958259999752045,52,61
4,001,27,m,r,memory_test,497,254,hot_tub_06s,unseen,,,,no,0.5986791998147964,52,61
4,001,27,m,r,memory_test,498,255,kimono_02s,seen,yes,low,controlled,no,0.5728043999988586,51,62
4,001,27,m,r,memory_test,499,256,tattoo_12s,seen,no,low,uncontrolled,yes,2.44407010008581,51,61
4,001,27,m,r,memory_test,500,257,macaroni_13s,unseen,,,,no,0.7559604998677969,52,61
4,001,27,m,r,memory_test,501,258,swordfish_09s,unseen,,,,no,0.7184991000685841,52,61
4,001,27,m,r,memory_test,502,259,blower_08s,seen,yes,high,controlled,no,0.6306784001644701,51,62
4,001,27,m,r,memory_test,503,260,coffee_bean_12s,seen,no,low,uncontrolled,no,0.7582583001349121,51,62
4,001,27,m,r,memory_test,504,261,headband_10s,unseen,,,,no,0.8419548000674695,52,61
4,001,27,m,r,memory_test,505,262,hot_chocolate_07s,seen,yes,high,controlled,no,0.7724966001696885,51,62
4,001,27,m,r,memory_test,506,263,cream_cheese_07s,seen,yes,high,controlled,no,1.9383052000775933,51,62
4,001,27,m,r,memory_test,507,264,chinchilla_13n,seen,no,low,uncontrolled,no,4.027785200159997,51,62
4,001,27,m,r,memory_test,508,265,suit_14s,unseen,,,,no,0.768223199993372,52,61
4,001,27,m,r,memory_test,509,266,hobbyhorse_01b,unseen,,,,no,1.5968481001909822,52,61
4,001,27,m,r,memory_test,510,267,bracelet1_12s,unseen,,,,no,1.5856008999980986,52,61
4,001,27,m,r,memory_test,511,268,cream_cheese_12s,unseen,,,,no,0.9910532999783754,52,61
4,001,27,m,r,memory_test,512,269,otter_02s,unseen,,,,no,0.6326817001681775,52,61
4,001,27,m,r,memory_test,513,270,banana_03s,unseen,,,,no,0.6511031999252737,52,61
4,001,27,m,r,memory_test,514,271,raccoon_06n,seen,yes,high,controlled,no,0.6505851000547409,51,62
4,001,27,m,r,memory_test,515,272,diamond_14s,seen,no,high,uncontrolled,yes,1.8886257000267506,51,61
4,001,27,m,r,memory_test,516,273,peanut_butter_02s,unseen,,,,no,1.834155600052327,52,61
4,001,27,m,r,memory_test,517,274,saltshaker_08s,unseen,,,,no,0.7492573999334127,52,61
4,001,27,m,r,memory_test,518,275,leggings_12s,seen,no,low,uncontrolled,no,0.6503033000044525,51,62
4,001,27,m,r,memory_test,519,276,sleeping_bag_12s,seen,yes,low,controlled,yes,3.0872993001248688,51,61
4,001,27,m,r,memory_test,520,277,figurine_11s,seen,no,high,uncontrolled,no,0.8023063000291586,51,62
4,001,27,m,r,memory_test,521,278,chinchilla_08s,unseen,,,,no,0.5960342998150736,52,61
4,001,27,m,r,memory_test,522,279,gearshift_12n,unseen,,,,no,0.8863345999270678,52,61
4,001,27,m,r,memory_test,523,280,kangaroo_12s,unseen,,,,no,0.576854599872604,52,61
4,001,27,m,r,memory_test,524,281,pizza_08s,unseen,,,,no,0.6714256999548525,52,61
4,001,27,m,r,memory_test,525,282,swab_02s,unseen,,,,no,2.7730084999930114,52,61
4,001,27,m,r,memory_test,526,283,rattle_04s,unseen,,,,no,0.5620528000872582,52,61
4,001,27,m,r,memory_test,527,284,sandbox_06s,unseen,,,,no,0.5303266998380423,52,61
4,001,27,m,r,memory_test,528,285,pacifier_07s,seen,yes,high,controlled,yes,1.5568454000167549,51,61
4,001,27,m,r,memory_test,529,286,cross_11s,unseen,,,,no,0.952159799868241,52,61
4,001,27,m,r,memory_test,530,287,walrus_02n,seen,yes,high,controlled,no,0.6842615001369268,51,62
4,001,27,m,r,memory_test,531,288,electric_chair_09s,seen,yes,low,controlled,no,2.25144279981032,51,62
4,001,27,m,r,memory_test,532,289,creme_brulee_07s,unseen,,,,no,5.91473720013164,52,61
4,001,27,m,r,memory_test,533,290,tomato_sauce_07s,seen,no,low,uncontrolled,yes,0.7982925998512655,51,61
4,001,27,m,r,memory_test,534,291,nightshirt_01b,seen,no,low,uncontrolled,no,0.5964881000109017,51,62
4,001,27,m,r,memory_test,535,292,pea_02s,unseen,,,,no,2.423787900013849,52,61
4,001,27,m,r,memory_test,536,293,pants_03s,seen,no,high,uncontrolled,no,0.5908051000442356,51,62
4,001,27,m,r,memory_test,537,294,calf1_01b,unseen,,,,no,0.5124417000915855,52,61
4,001,27,m,r,memory_test,538,295,caviar_12s,unseen,,,,no,1.5800536000169814,52,61
4,001,27,m,r,memory_test,539,296,urinal_10s,seen,yes,low,controlled,yes,0.8843634999357164,51,61
4,001,27,m,r,memory_test,540,297,cauliflower_02s,seen,no,low,uncontrolled,yes,1.365557799814269,51,61
4,001,27,m,r,memory_test,541,298,ginger_10s,unseen,,,,no,2.554346599848941,52,61
4,001,27,m,r,memory_test,542,299,saltshaker_07s,seen,yes,high,controlled,yes,1.21746169985272,51,61
4,001,27,m,r,memory_test,543,300,breadstick_02s,unseen,,,,no,0.975027299951762,52,61
4,001,27,m,r,memory_test,544,301,coin_15s,unseen,,,,no,2.8412462000269443,52,61
4,001,27,m,r,memory_test,545,302,vest_05s,unseen,,,,no,0.5595937999896705,52,61
4,001,27,m,r,memory_test,546,303,step_stool_06s,unseen,,,,yes,0.9195311001967639,52,62
4,001,27,m,r,memory_test,547,304,boot_08s,seen,yes,low,controlled,no,0.8084306998644024,51,62
4,001,27,m,r,memory_test,548,305,shaving_cream_07s,unseen,,,,no,1.882199800107628,52,61
4,001,27,m,r,memory_test,549,306,coin_03s,seen,no,high,uncontrolled,yes,2.198396900203079,51,61
4,001,27,m,r,memory_test,550,307,gyro_07s,seen,yes,high,controlled,yes,0.7576268000993878,51,61
4,001,27,m,r,memory_test,551,308,pajamas_09s,unseen,,,,no,0.8090135999955237,52,61
4,001,27,m,r,memory_test,552,309,pill_03s,unseen,,,,no,1.1240165000781417,52,61
4,001,27,m,r,memory_test,553,310,lab_coat_01b,unseen,,,,no,0.736316499998793,52,61
4,001,27,m,r,memory_test,554,311,canoe_06s,seen,yes,low,controlled,no,0.9927180001977831,51,62
4,001,27,m,r,memory_test,555,312,sushi_08s,seen,yes,high,controlled,no,0.9745938000269234,51,62
4,001,27,m,r,memory_test,556,313,vest_09s,seen,no,high,uncontrolled,no,0.562624900136143,51,62
4,001,27,m,r,memory_test,557,314,soap_06s,seen,yes,low,controlled,yes,0.8105518000666052,51,61
4,001,27,m,r,memory_test,558,315,sauerkraut_03s,seen,yes,low,controlled,no,4.744732800172642,51,62
4,001,27,m,r,memory_test,559,316,spacesuit_06s,seen,yes,low,controlled,no,0.5427890999708325,51,62
4,001,27,m,r,memory_test,560,317,rooster_09s,unseen,,,,no,0.5622686001006514,52,61
4,001,27,m,r,memory_test,561,318,float_08s,seen,yes,high,controlled,yes,1.431080900132656,51,61
4,001,27,m,r,memory_test,562,319,vacuum_11s,seen,no,low,uncontrolled,no,0.49562579998746514,51,62
4,001,27,m,r,memory_test,563,320,calf1_12s,seen,yes,low,controlled,no,0.6050761002115905,51,62
4,001,27,m,r,memory_test,564,321,beanbag_16s,seen,yes,high,controlled,yes,0.7854752000421286,51,61
4,001,27,m,r,memory_test,565,322,ketchup_14s,unseen,,,,no,0.8342291000299156,52,61
4,001,27,m,r,memory_test,566,323,cookie_cutter_02s,seen,yes,low,controlled,yes,0.787375699961558,51,61
4,001,27,m,r,memory_test,567,324,wallet_04s,unseen,,,,no,1.2833424999844283,52,61
4,001,27,m,r,memory_test,568,325,urinal_12s,unseen,,,,no,0.8051374000497162,52,61
4,001,27,m,r,memory_test,569,326,quesadilla_23s,seen,no,low,uncontrolled,no,1.0339069999754429,51,62
4,001,27,m,r,memory_test,570,327,shower_cap_07s,unseen,,,,no,2.336636600084603,52,61
4,001,27,m,r,memory_test,571,328,hobbyhorse_04s,seen,yes,low,controlled,no,0.6356663999613374,51,62
4,001,27,m,r,memory_test,572,329,pita_02s,seen,no,low,uncontrolled,yes,1.0913286001887172,51,61
4,001,27,m,r,memory_test,573,330,filing_cabinet_09s,unseen,,,,no,0.6634349999949336,52,61
4,001,27,m,r,memory_test,574,331,shears_03s,unseen,,,,no,1.106819499982521,52,61
4,001,27,m,r,memory_test,575,332,toast_07s,unseen,,,,no,2.1159119000658393,52,61
4,001,27,m,r,memory_test,576,333,limousine_01s,seen,no,high,uncontrolled,no,0.5776913000736386,51,62
4,001,27,m,r,memory_test,577,334,pill_06s,seen,no,high,uncontrolled,no,0.8579952002037317,51,62
4,001,27,m,r,memory_test,578,335,bib_13n,seen,no,high,uncontrolled,yes,3.4633688000030816,51,61
4,001,27,m,r,memory_test,579,336,clipper2_05s,seen,yes,high,controlled,yes,3.2254763999953866,51,61
4,001,27,m,r,memory_test,580,337,pepper2_07s,seen,no,low,uncontrolled,no,0.7608270000200719,51,62
4,001,27,m,r,memory_test,581,338,figurine_08s,unseen,,,,no,0.9423418999649584,52,61
4,001,27,m,r,memory_test,582,339,rooster_07s,seen,no,low,uncontrolled,yes,0.9106813999824226,51,61
4,001,27,m,r,memory_test,583,340,washing_machine_08s,unseen,,,,no,1.332466599997133,52,61
4,001,27,m,r,memory_test,584,341,bracelet1_05s,seen,yes,high,controlled,no,2.6196512999013066,51,62
4,001,27,m,r,memory_test,585,342,curling_iron_04s,unseen,,,,no,0.7007120999041945,52,61
4,001,27,m,r,memory_test,586,343,giraffe_07s,seen,no,low,uncontrolled,yes,0.8732316000387073,51,61
4,001,27,m,r,memory_test,587,344,staple_02s,unseen,,,,no,0.7054234000388533,52,61
4,001,27,m,r,memory_test,588,345,frisbee_11s,unseen,,,,no,1.0160223999992013,52,61
4,001,27,m,r,memory_test,589,346,cheesecake_11s,seen,no,low,uncontrolled,yes,0.8292451000306755,51,61
4,001,27,m,r,memory_test,590,347,jumpsuit_13s,unseen,,,,no,0.7442505999933928,52,61
4,001,27,m,r,memory_test,591,348,headset_09s,unseen,,,,no,5.065526599995792,52,61
4,001,27,m,r,memory_test,592,349,electric_chair_11s,unseen,,,,no,3.1908925999887288,52,61
4,001,27,m,r,memory_test,593,350,boxing_gloves_08s,seen,yes,low,controlled,no,0.8126010000705719,51,62
4,001,27,m,r,memory_test,594,351,ginger_03s,seen,yes,low,controlled,yes,2.309968899935484,51,61
4,001,27,m,r,memory_test,595,352,donut_15s,unseen,,,,no,2.0104223000817,52,61
4,001,27,m,r,memory_test,596,353,football_05s,unseen,,,,no,5.208581999875605,52,61
4,001,27,m,r,memory_test,597,354,pita_08s,unseen,,,,no,1.4091895001474768,52,61
4,001,27,m,r,memory_test,598,355,footprint_11s,seen,yes,high,controlled,yes,0.8215496998745948,51,61
4,001,27,m,r,memory_test,599,356,blower_12s,unseen,,,,no,1.1405130999628454,52,61
4,001,27,m,r,memory_test,600,357,squeegee_05s,unseen,,,,no,2.1258593001402915,52,61
4,001,27,m,r,memory_test,601,358,chick_03s,unseen,,,,no,1.5205316001083702,52,61
4,001,27,m,r,memory_test,602,359,toast_13s,seen,no,high,uncontrolled,no,0.5749593998771161,51,62
4,001,27,m,r,memory_test,603,360,clipper2_06s,unseen,,,,yes,1.3817006000317633,52,62
4,001,27,m,r,memory_test,604,361,jelly_bean_10s,unseen,,,,no,0.7747146999463439,52,61
4,001,27,m,r,memory_test,605,362,cardinal_11s,unseen,,,,no,0.5910930999089032,52,61
4,001,27,m,r,memory_test,606,363,apron_13s,seen,yes,high,controlled,no,0.5503430999815464,51,62
4,001,27,m,r,memory_test,607,364,cookie_14s,unseen,,,,no,3.3778082001954317,52,61
4,001,27,m,r,memory_test,608,365,blindfold_16s,unseen,,,,no,0.6732326000928879,52,61
4,001,27,m,r,memory_test,609,366,wooden_leg_08s,unseen,,,,no,0.7172162001952529,52,61
4,001,27,m,r,memory_test,610,367,boxing_gloves_10s,unseen,,,,no,0.7155710998922586,52,61
4,001,27,m,r,memory_test,611,368,dolphin_02s,unseen,,,,no,0.7660291001666337,52,61
4,001,27,m,r,memory_test,612,369,mouthpiece_01s,seen,no,high,uncontrolled,no,0.689366800012067,51,62
4,001,27,m,r,memory_test,613,370,peanut_butter_07s,seen,yes,low,controlled,no,0.9910381000954658,51,62
4,001,27,m,r,memory_test,614,371,cookie_11s,seen,no,low,uncontrolled,no,0.6432490998413414,51,62
4,001,27,m,r,memory_test,615,372,ready_meal_07s,unseen,,,,no,2.9467846998013556,52,61
4,001,27,m,r,memory_test,616,373,kazoo_07s,unseen,,,,no,0.7169629000127316,52,61
4,001,27,m,r,memory_test,617,374,keyboard_07s,seen,yes,low,controlled,yes,2.020942300092429,51,61
4,001,27,m,r,memory_test,618,375,kangaroo_11s,seen,yes,low,controlled,no,1.0781739000231028,51,62
4,001,27,m,r,memory_test,619,376,locker_12s,unseen,,,,no,0.576446000020951,52,61
4,001,27,m,r,memory_test,620,377,chick_06s,seen,yes,low,controlled,no,0.5692505999468267,51,62
4,001,27,m,r,memory_test,621,378,taffy_02s,seen,no,low,uncontrolled,no,0.6431547000538558,51,62
4,001,27,m,r,memory_test,622,379,pallet_04s,unseen,,,,no,1.3072490999475121,52,61
4,001,27,m,r,memory_test,623,380,faucet_11s,unseen,,,,no,0.9363671999890357,52,61
4,001,27,m,r,memory_test,624,381,snorkel_05s,unseen,,,,no,0.6771598001942039,52,61
4,001,27,m,r,memory_test,625,382,footprint_10s,unseen,,,,no,0.6952039999887347,52,61
4,001,27,m,r,memory_test,626,383,corset_17s,unseen,,,,no,0.5188114000484347,52,61
4,001,27,m,r,memory_test,627,384,banana_06s,seen,no,low,uncontrolled,no,1.6229218000080436,51,62
4,001,27,m,r,memory_test,628,385,lanyard_13s,seen,no,low,uncontrolled,no,1.500125000020489,51,62
4,001,27,m,r,memory_test,629,386,caviar_01b,seen,no,high,uncontrolled,no,1.9508271000813693,51,62
4,001,27,m,r,memory_test,630,387,lion_15s,unseen,,,,no,0.8668104999233037,52,61
4,001,27,m,r,memory_test,631,388,clasp_09s,seen,no,high,uncontrolled,no,0.7367656999267638,51,62
4,001,27,m,r,memory_test,632,389,frisbee_04s,seen,yes,high,controlled,yes,1.3793377000838518,51,61
4,001,27,m,r,memory_test,633,390,cat_08s,unseen,,,,no,0.7884752000682056,52,61
4,001,27,m,r,memory_test,634,391,kazoo_08s,seen,no,high,uncontrolled,no,0.6872386001050472,51,62
4,001,27,m,r,memory_test,635,392,memory_stick_12s,unseen,,,,no,0.7002153000794351,52,61
4,001,27,m,r,memory_test,636,393,peg_09s,seen,no,low,uncontrolled,no,0.828698500059545,51,62
4,001,27,m,r,memory_test,637,394,toothbrush_05s,unseen,,,,no,0.742304400075227,52,61
4,001,27,m,r,memory_test,638,395,sponge_14s,seen,no,high,uncontrolled,no,0.7267187000252306,51,62
4,001,27,m,r,memory_test,639,396,washing_machine_05s,seen,yes,low,controlled,no,0.7083824998699129,51,62
4,001,27,m,r,memory_test,640,397,coaster_08s,unseen,,,,no,0.8683096999302506,52,61
4,001,27,m,r,memory_test,641,398,trap_03s,seen,yes,low,controlled,no,0.588290800107643,51,62
4,001,27,m,r,memory_test,642,399,pet_food_10s,unseen,,,,no,1.0171545001212507,52,61
4,001,27,m,r,memory_test,643,400,mitten_08s,unseen,,,,no,0.8444515999872237,52,61
4,001,27,m,r,memory_test,644,401,dreidel_10s,seen,yes,low,controlled,no,0.8538582001347095,51,62
4,001,27,m,r,memory_test,645,402,robot_07s,unseen,,,,no,2.1738960999064147,52,61
4,001,27,m,r,memory_test,646,403,otter_12s,seen,yes,high,controlled,no,3.5278764001559466,51,62
4,001,27,m,r,memory_test,647,404,checkers_07s,seen,no,low,uncontrolled,yes,1.847597099840641,51,61
4,001,27,m,r,memory_test,648,405,hamburger_02s,seen,yes,low,controlled,yes,3.1563138999044895,51,61
4,001,27,m,r,memory_test,649,406,drumstick_04s,unseen,,,,no,3.5847849000710994,52,61
4,001,27,m,r,memory_test,650,407,flipper_12s,seen,yes,low,controlled,no,0.5777904998976737,51,62
4,001,27,m,r,memory_test,651,408,cigarette_06s,unseen,,,,no,3.4643267998471856,52,61
4,001,27,m,r,memory_test,652,409,sushi_09s,unseen,,,,no,0.7828174000605941,52,61
4,001,27,m,r,memory_test,653,410,bikini_03s,unseen,,,,no,0.7476835998240858,52,61
4,001,27,m,r,memory_test,654,411,shaving_cream_05s,seen,yes,low,controlled,yes,0.9495480000041425,51,61
4,001,27,m,r,memory_test,655,412,eggplant_01b,unseen,,,,no,1.013278700178489,52,61
4,001,27,m,r,memory_test,656,413,skewer_09s,unseen,,,,no,3.159280499909073,52,61
4,001,27,m,r,memory_test,657,414,turf_04s,seen,yes,high,controlled,no,0.7905365000478923,51,62
4,001,27,m,r,memory_test,658,415,grapefruit_04s,unseen,,,,no,0.661962800193578,52,61
4,001,27,m,r,memory_test,659,416,pocket_01b,seen,no,low,uncontrolled,no,0.5932100999634713,51,62
4,001,27,m,r,memory_test,660,417,duster_07s,seen,no,low,uncontrolled,no,1.000367800006643,51,62
4,001,27,m,r,memory_test,661,418,shears_04s,seen,yes,high,controlled,no,2.226523800054565,51,62
4,001,27,m,r,memory_test,662,419,spaghetti_07s,seen,no,low,uncontrolled,no,0.8461458999663591,51,62
4,001,27,m,r,memory_test,663,420,sequin_12s,unseen,,,,no,1.1978221000172198,52,61
4,001,27,m,r,memory_test,664,421,peg_06s,unseen,,,,no,0.9767533999402076,52,61
4,001,27,m,r,memory_test,665,422,flipper_09s,unseen,,,,no,0.5542480000294745,52,61
4,001,27,m,r,memory_test,666,423,elephant_07n,seen,no,low,uncontrolled,no,1.4907601000741124,51,62
4,001,27,m,r,memory_test,667,424,boot_02s,unseen,,,,no,0.6239517000503838,52,61
4,001,27,m,r,memory_test,668,425,shark_06s,unseen,,,,no,0.6634869000408798,52,61
4,001,27,m,r,memory_test,669,426,hamster_07s,seen,yes,high,controlled,no,0.7854534001089633,51,62
4,001,27,m,r,memory_test,670,427,raccoon_01b,unseen,,,,yes,1.149231999879703,52,62
4,001,27,m,r,memory_test,671,428,paint_10s,seen,yes,high,controlled,no,0.6303811999969184,51,62
4,001,27,m,r,memory_test,672,429,gyro_01b,unseen,,,,no,1.0681012999266386,52,61
4,001,27,m,r,memory_test,673,430,pickle_09s,unseen,,,,yes,1.1145821998361498,52,62
4,001,27,m,r,memory_test,674,431,sewage_05s,unseen,,,,no,0.7431159000843763,52,61
4,001,27,m,r,memory_test,675,432,cheese_07s,unseen,,,,no,0.6244288999587297,52,61
4,001,27,m,r,memory_test,676,433,pantsuit_09s,unseen,,,,no,3.009144099894911,52,61
4,001,27,m,r,memory_test,677,434,curling_iron_05s,seen,no,low,uncontrolled,no,1.0553345000371337,51,62
4,001,27,m,r,memory_test,678,435,jam_01b,unseen,,,,no,0.7755088999401778,52,61
4,001,27,m,r,memory_test,679,436,barrette_01b,seen,yes,low,controlled,no,1.835722700227052,51,62
4,001,27,m,r,memory_test,680,437,sorbet_05s,seen,yes,low,controlled,no,0.7767821999732405,51,62
4,001,27,m,r,memory_test,681,438,light_switch_17s,seen,yes,high,controlled,yes,1.0425161998718977,51,61
4,001,27,m,r,memory_test,682,439,waffle_iron_14s,seen,no,high,uncontrolled,no,0.6409109998494387,51,62
4,001,27,m,r,memory_test,683,440,apron_10s,unseen,,,,no,2.411164600169286,52,61
4,001,27,m,r,memory_test,684,441,grater_03s,seen,yes,low,controlled,yes,3.200158999999985,51,61
4,001,27,m,r,memory_test,685,442,doorknocker_26s,seen,no,low,uncontrolled,no,1.1901330000255257,51,62
4,001,27,m,r,memory_test,686,443,pretzel_07s,seen,no,high,uncontrolled,yes,2.0515511000994593,51,61
4,001,27,m,r,memory_test,687,444,checkers_06s,unseen,,,,yes,0.8892171001061797,52,62
4,001,27,m,r,memory_test,688,445,football_helmet_14s,unseen,,,,no,0.7390491000842303,52,61
4,001,27,m,r,memory_test,689,446,shower_cap_12s,seen,no,high,uncontrolled,no,0.7594879001844674,51,62
4,001,27,m,r,memory_test,690,447,dip_05s,seen,yes,low,controlled,no,1.205400099977851,51,62
4,001,27,m,r,memory_test,691,448,saffron_02s,unseen,,,,no,1.289949599886313,52,61
4,001,27,m,r,memory_test,692,449,hydrant_01s,seen,no,low,uncontrolled,no,0.8484219999518245,51,62
4,001,27,m,r,memory_test,693,450,badge_07s,seen,yes,low,controlled,yes,5.53597419988364,51,61
4,001,27,m,r,memory_test,694,451,coffee_bean_11s,unseen,,,,no,1.4098328999243677,52,61
4,001,27,m,r,memory_test,695,452,boa_02s,seen,no,low,uncontrolled,yes,0.88238580012694,51,61
4,001,27,m,r,memory_test,696,453,sink_01b,seen,yes,low,controlled,no,1.157953399932012,51,62
4,001,27,m,r,memory_test,697,454,robot_01b,seen,no,high,uncontrolled,no,0.789953799918294,51,62
4,001,27,m,r,memory_test,698,455,candy_cane_07s,unseen,,,,yes,2.6370242000557482,52,62
4,001,27,m,r,memory_test,699,456,toad_16s,unseen,,,,no,0.967224600026384,52,61
4,001,27,m,r,memory_test,700,457,dishrag_08s,unseen,,,,yes,3.727208700031042,52,62
4,001,27,m,r,memory_test,701,458,container_10s,unseen,,,,no,0.8387819998897612,52,61
4,001,27,m,r,memory_test,702,459,fingerprint_12s,seen,yes,high,controlled,no,1.5250915000215173,51,62
4,001,27,m,r,memory_test,703,460,dragonfly_09s,seen,no,low,uncontrolled,no,0.6559822999406606,51,62
4,001,27,m,r,memory_test,704,461,crutch_04s,unseen,,,,no,1.9629877000115812,52,61
4,001,27,m,r,memory_test,705,462,wallet_05s,seen,no,low,uncontrolled,yes,1.4078947000671178,51,61
4,001,27,m,r,memory_test,706,463,corset_08s,seen,no,high,uncontrolled,yes,1.862978900084272,51,61
4,001,27,m,r,memory_test,707,464,mitten_04s,seen,no,low,uncontrolled,no,0.8505460999440402,51,62
4,001,27,m,r,memory_test,708,465,pug_19s,seen,yes,high,controlled,no,1.9121242000255734,51,62
4,001,27,m,r,memory_test,709,466,lion_22s,seen,yes,high,controlled,yes,1.2158893002197146,51,61
4,001,27,m,r,memory_test,710,467,pea_14s,seen,no,high,uncontrolled,yes,1.1848895999137312,51,61
4,001,27,m,r,memory_test,711,468,leggings_04s,unseen,,,,no,1.00028089992702,52,61
4,001,27,m,r,memory_test,712,469,duster_01s,unseen,,,,yes,1.170305599924177,52,62
4,001,27,m,r,memory_test,713,470,spaghetti_12s,unseen,,,,no,0.9867432999890298,52,61
4,001,27,m,r,memory_test,714,471,dreidel_13s,unseen,,,,no,0.679052900057286,52,61
4,001,27,m,r,memory_test,715,472,ice_cream_04s,unseen,,,,no,2.2435564999468625,52,61
4,001,27,m,r,memory_test,716,473,handbrake_07s,seen,yes,low,controlled,no,0.9044302999973297,51,62
4,001,27,m,r,memory_test,717,474,costume_04s,seen,yes,high,controlled,yes,0.953449800144881,51,61
4,001,27,m,r,memory_test,718,475,dalmatian_10s,seen,no,low,uncontrolled,yes,0.7102791001088917,51,61
4,001,27,m,r,memory_test,719,476,donut_02s,seen,yes,high,controlled,no,0.8105991000775248,51,62
4,001,27,m,r,memory_test,720,477,bikini_09s,seen,no,high,uncontrolled,no,1.0865601000841707,51,62
4,001,27,m,r,memory_test,721,478,paintbrush_06s,unseen,,,,no,0.7083579997997731,52,61
4,001,27,m,r,memory_test,722,479,toilet_02s,unseen,,,,no,0.7354403999634087,52,61
4,001,27,m,r,memory_test,723,480,boxer_shorts_09s,unseen,,,,no,1.6939484998583794,52,61
