thisRow.t,notes,overall_trial_num,participant,session,age,gender,handedness,phase,calib_target,n_shapes,block_num,trial_in_block,prop_used,stimulus_logit,detection_accuracy,is_timeout,rt_choice,early_response,true_controlled,response_controlled,quest_alpha_sd,mean_evidence,sum_evidence,var_evidence,target_snippet_id,distractor_snippet_ids,quest_alpha_mean,quest_beta_mean,quest_beta_sd,quest_lambda_mean,quest_lambda_sd,control_condition,threshold_75,agency_rating,img_A_name,img_B_name,trigger_stim_onset,trigger_motion_start,trigger_resp_onset,trigger_resp_val,participant,session,age,gender,handedness,quest_prop_high,quest_high_converged,quest_prop_low,quest_low_converged,miniblock_order,starts_with,
,,1,4,001,27,m,r,calibration,0.85,2,-1,1,0.5981210736084265,0.3976423325602886,1,False,1.327048699837178,False,square,square,0.8833941500202273,3.0289925599119973,542.1896682242475,33.481828450486574,933,[np.int64(1529)],0.49887896444510554,3.2323377588830704,2.050691472501904,0.0257364756811414,0.02148582368615677,,,,,,,,,,4,001,27,m,r,,,,,,,
,,2,4,001,27,m,r,calibration,0.85,2,-1,2,0.5350820483873121,0.14055915473515587,1,False,1.5504846000112593,False,square,square,0.8974722567509856,9.148430500746224,1655.8659206350667,134.34605030335925,13,[np.int64(1256)],0.3118133766571681,3.2082444668428995,2.0424419558677074,0.025480950703595955,0.02143037331807896,,,,,,,,,,4,001,27,m,r,,,,,,,
,,3,4,001,27,m,r,calibration,0.85,2,-1,3,0.5350820483873121,0.14055915473515587,1,False,2.3475013999268413,False,square,square,0.8872830967337415,7.655250804102747,1385.6003955425972,134.98558411793127,808,[np.int64(1419)],0.12417907816641394,3.202036049568465,2.0413069970393267,0.025192955999298612,0.021365090692057793,,,,,,,,,,4,001,27,m,r,,,,,,,
,,4,4,001,27,m,r,calibration,0.85,2,-1,4,0.5350820483873121,0.14055915473515587,1,False,1.1510333998594433,False,square,square,0.8556339725168699,11.90194387372224,2154.2518411437254,166.05936740469903,1538,[np.int64(1053)],-0.05217551202368467,3.212904805647718,2.0470640208696436,0.02487584370063665,0.021289789542834836,,,,,,,,,,4,001,27,m,r,,,,,,,
,,5,4,001,27,m,r,calibration,0.85,2,-1,5,0.5981210736084265,0.3976423325602886,0,False,2.588158000027761,False,dot,square,0.8061370145930047,7.654600791993955,1385.4827433509058,174.70181818586835,1526,[np.int64(1567)],0.5851424197662809,3.046626344755488,1.97153968070472,0.026554792913001037,0.021625057742259576,,,,,,,,,,4,001,27,m,r,,,,,,,
,,6,4,001,27,m,r,calibration,0.85,2,-1,6,0.5981210736084265,0.3976423325602886,1,False,1.8834219998680055,False,dot,dot,0.8059334440408894,12.868060942908269,2329.1190306663966,193.21952928015827,1302,[np.int64(524)],0.4247819296178742,3.03383278423943,1.966905637755459,0.02626789386982201,0.02157062903585394,,,,,,,,,,4,001,27,m,r,,,,,,,
,,7,4,001,27,m,r,calibration,0.85,2,-1,7,0.5981210736084265,0.3976423325602886,1,False,1.5977170001715422,False,dot,dot,0.7884182106443354,14.884192852650953,2694.0389063298226,235.31429244766312,743,[np.int64(1463)],0.27029324994114806,3.0378680337726607,1.9700784568205592,0.025953871560228672,0.02150775817907404,,,,,,,,,,4,001,27,m,r,,,,,,,
,,8,4,001,27,m,r,calibration,0.85,2,-1,8,0.5981210736084265,0.3976423325602886,1,False,2.035527699859813,False,square,square,0.757747175248013,13.709086097345493,2481.344583619534,165.1803938590328,694,[np.int64(56)],0.1287977914170402,3.057267549613235,1.9803071148569247,0.025616336229206938,0.021436332197823114,,,,,,,,,,4,001,27,m,r,,,,,,,
,,9,4,001,27,m,r,calibration,0.85,2,-1,9,0.5981210736084265,0.3976423325602886,1,False,2.188260099850595,False,square,square,0.7197202152476004,14.819911444079068,2682.4039713783113,190.73902914807047,888,[np.int64(237)],0.004549839045660991,3.0899627803327805,1.996348837860866,0.02525952012582045,0.021356481482210275,,,,,,,,,,4,001,27,m,r,,,,,,,
,,10,4,001,27,m,r,calibration,0.85,2,-1,10,0.5981210736084265,0.3976423325602886,1,False,1.5013711999636143,False,dot,dot,0.6799997327295357,11.932584566170922,2159.797806476937,197.91754533111157,49,[np.int64(1168)],-0.10120229141758924,3.133640541961964,2.016753344480298,0.024887694885496477,0.021268504572778842,,,,,,,,,,4,001,27,m,r,,,,,,,
,,11,4,001,27,m,r,calibration,0.85,2,-1,11,0.5981210736084265,0.3976423325602886,1,False,1.7696324998978525,False,dot,dot,0.6428694916444142,13.147651406818138,2379.724904634083,189.795110454155,917,[np.int64(177)],nan,nan,nan,nan,nan,,,,,,,,,,4,001,27,m,r,,,,,,,
,,12,4,001,27,m,r,calibration,0.85,2,-1,12,0.47090191089840744,-0.11652402308997703,1,False,1.2193871999625117,False,dot,dot,0.6269584438915822,5.957821733951077,1078.3657338451449,229.07943536335037,1046,[np.int64(1066)],nan,nan,nan,nan,nan,,,,,,,,,,4,001,27,m,r,,,,,,,
,,13,4,001,27,m,r,calibration,0.85,2,-1,13,0.40766968306220214,-0.37360720091511007,1,False,1.3700700998306274,False,dot,dot,0.6219455764762467,5.531568923191396,1001.2139750976428,262.79733901359225,532,[np.int64(520)],nan,nan,nan,nan,nan,,,,,,,,,,4,001,27,m,r,,,,,,,
,,14,4,001,27,m,r,calibration,0.85,2,-1,14,0.40766968306220214,-0.37360720091511007,1,False,1.1363434998784214,False,square,square,0.6121784156577011,5.1753688330341365,936.7417587791788,105.58213398844799,472,[np.int64(428)],nan,nan,nan,nan,nan,,,,,,,,,,4,001,27,m,r,,,,,,,
,,15,4,001,27,m,r,calibration,0.85,2,-1,15,0.347354013008391,-0.6306903787402434,1,False,1.6661258998792619,False,square,square,0.6115664758089936,4.800507752214504,868.8919031508252,360.38472334366344,984,[np.int64(163)],nan,nan,nan,nan,nan,,,,,,,,,,4,001,27,m,r,,,,,,,
,,16,4,001,27,m,r,calibration,0.85,2,-1,16,0.347354013008391,-0.6306903787402434,1,False,1.2191300000995398,False,square,square,0.6051455246616696,5.67144199403869,1026.531000921003,213.47370301422944,696,[np.int64(1587)],nan,nan,nan,nan,nan,,,,,,,,,,4,001,27,m,r,,,,,,,
,,17,4,001,27,m,r,calibration,0.85,2,-1,17,0.347354013008391,-0.6306903787402434,1,False,1.4332905998453498,False,square,square,0.5935945401302132,4.601999501983389,832.9619098589935,322.6166460471366,840,[np.int64(225)],nan,nan,nan,nan,nan,,,,,,,,,,4,001,27,m,r,,,,,,,
,,18,4,001,27,m,r,calibration,0.85,2,-1,18,0.347354013008391,-0.6306903787402434,1,False,1.3528939001262188,False,square,square,0.5782462814922547,2.7024184638992925,489.1377419657719,324.50370263508796,247,[np.int64(867)],nan,nan,nan,nan,nan,,,,,,,,,,4,001,27,m,r,,,,,,,
,,19,4,001,27,m,r,calibration,0.85,2,-1,19,0.29156950079727495,-0.887773556565376,1,False,0.9864068999886513,False,dot,dot,0.5706703371650379,2.957996638650983,535.3973915958279,404.14863348522414,1215,[np.int64(838)],nan,nan,nan,nan,nan,,,,,,,,,,4,001,27,m,r,,,,,,,
,,20,4,001,27,m,r,calibration,0.85,2,-1,20,0.29156950079727495,-0.887773556565376,1,False,1.0559517999645323,False,square,square,0.5588404364901294,1.7631431056774316,319.1289021276151,138.7250982709705,737,[np.int64(540)],-1.077777538708314,3.197864702476946,2.0409925252007213,0.021829382101605697,0.02035866402488739,,,,,,,,,,4,001,27,m,r,,,,,,,
,,21,4,001,27,m,r,calibration,0.85,2,-1,21,0.29156950079727495,-0.887773556565376,1,False,1.2383473999798298,False,dot,dot,0.5440618509158143,1.929472346876187,349.23449478458986,352.7438493771185,132,[np.int64(553)],nan,nan,nan,nan,nan,,,,,,,,,,4,001,27,m,r,,,,,,,
,,22,4,001,27,m,r,calibration,0.85,2,-1,22,0.2414297750189407,-1.1448567343905092,0,False,1.3175258999690413,False,dot,square,0.4837647783691694,3.147076770373069,569.6208954375255,276.413402686894,806,[np.int64(129)],nan,nan,nan,nan,nan,,,,,,,,,,4,001,27,m,r,,,,,,,
,,23,4,001,27,m,r,calibration,0.85,2,-1,23,0.347354013008391,-0.6306903787402434,1,False,1.0169208999723196,False,square,square,0.4642978112776029,2.4107207314579027,436.3404523938804,235.23499124465266,814,[np.int64(548)],nan,nan,nan,nan,nan,,,,,,,,,,4,001,27,m,r,,,,,,,
,,24,4,001,27,m,r,calibration,0.85,2,-1,24,0.347354013008391,-0.6306903787402434,1,False,1.063958200160414,False,square,square,0.4464175792981318,4.101425740084749,742.3580589553396,448.9669785672324,1039,[np.int64(1112)],nan,nan,nan,nan,nan,,,,,,,,,,4,001,27,m,r,,,,,,,
,,25,4,001,27,m,r,calibration,0.85,2,-1,25,0.29156950079727495,-0.887773556565376,1,False,1.268051999853924,False,square,square,0.43613961557526687,3.705596870660891,670.7130335896212,171.48623009473886,901,[np.int64(400)],nan,nan,nan,nan,nan,,,,,,,,,,4,001,27,m,r,,,,,,,
,,26,4,001,27,m,r,calibration,0.85,2,-1,26,0.29156950079727495,-0.887773556565376,1,False,0.7543005999177694,False,dot,dot,0.42596734394280805,4.620414952841853,836.2951064643753,542.7296620514817,1431,[np.int64(792)],nan,nan,nan,nan,nan,,,,,,,,,,4,001,27,m,r,,,,,,,
,,27,4,001,27,m,r,calibration,0.85,2,-1,27,0.2414297750189407,-1.1448567343905092,1,False,0.9692229998763651,False,square,square,0.4245842277062813,2.0375860325103137,368.8030718843668,287.5881004383863,1024,[np.int64(621)],nan,nan,nan,nan,nan,,,,,,,,,,4,001,27,m,r,,,,,,,
,,28,4,001,27,m,r,calibration,0.85,2,-1,28,0.2414297750189407,-1.1448567343905092,1,False,0.7166778000537306,False,square,square,0.42184250595395895,2.468742826989821,446.8424516851576,244.7529063240241,631,[np.int64(1461)],nan,nan,nan,nan,nan,,,,,,,,,,4,001,27,m,r,,,,,,,
,,29,4,001,27,m,r,calibration,0.85,2,-1,29,0.2414297750189407,-1.1448567343905092,1,False,1.2858745998237282,False,square,square,0.4179206635672693,4.691873836370502,849.2291643830608,418.65512081974106,775,[np.int64(1242)],nan,nan,nan,nan,nan,,,,,,,,,,4,001,27,m,r,,,,,,,
,,30,4,001,27,m,r,calibration,0.85,2,-1,30,0.19750845711691875,-1.4019399122156422,1,False,1.017409199848771,False,square,square,0.4221520996366617,3.219234509801446,582.6814462740617,336.53590704251764,656,[np.int64(843)],-1.3807578907167788,3.4077393681255392,2.137409077024491,0.019945559347752218,0.019616658423054895,,,,,,,,,,4,001,27,m,r,,,,,,,
,,31,4,001,27,m,r,calibration,0.85,2,-1,31,0.19750845711691875,-1.4019399122156422,1,False,2.138529400108382,False,dot,dot,0.4239049101625278,2.8425006653672362,514.4926204314697,399.26180046493124,1473,[np.int64(1131)],nan,nan,nan,nan,nan,,,,,,,,,,4,001,27,m,r,,,,,,,
,,32,4,001,27,m,r,calibration,0.85,2,-1,32,0.19750845711691875,-1.4019399122156422,1,False,1.7375838998705149,False,square,square,0.42314151196819316,1.4707882867251907,266.21267989725953,363.2104849303918,926,[np.int64(774)],nan,nan,nan,nan,nan,,,,,,,,,,4,001,27,m,r,,,,,,,
,,33,4,001,27,m,r,calibration,0.85,2,-1,33,0.19750845711691875,-1.4019399122156422,1,False,0.737854199949652,False,dot,dot,0.42006072415721296,2.504769902151992,453.36335228951054,391.857445089105,627,[np.int64(549)],nan,nan,nan,nan,nan,,,,,,,,,,4,001,27,m,r,,,,,,,
,,34,4,001,27,m,r,calibration,0.85,2,-1,34,0.15989317907384526,-1.659023090040775,1,False,1.7516681000124663,False,dot,dot,0.42364367924973173,2.698993180117365,488.5177656012431,266.8149925700884,1110,[np.int64(1114)],nan,nan,nan,nan,nan,,,,,,,,,,4,001,27,m,r,,,,,,,
,,35,4,001,27,m,r,calibration,0.85,2,-1,35,0.15989317907384526,-1.659023090040775,0,False,1.6537456000223756,False,square,dot,0.37152384139208977,1.8484943037994523,334.57746898770085,287.2120481562599,1281,[np.int64(1182)],nan,nan,nan,nan,nan,,,,,,,,,,4,001,27,m,r,,,,,,,
,,36,4,001,27,m,r,calibration,0.85,2,-1,36,0.19750845711691875,-1.4019399122156422,0,False,1.400158500066027,False,dot,square,0.341036671455683,2.0709208712916776,374.83667770379367,374.03598133714866,253,[np.int64(219)],nan,nan,nan,nan,nan,,,,,,,,,,4,001,27,m,r,,,,,,,
,,37,4,001,27,m,r,calibration,0.85,2,-1,37,0.2414297750189407,-1.1448567343905092,1,False,0.8502964000217617,False,square,square,0.3327697687485567,3.1400499934338764,568.3490488115316,337.0746996141019,1435,[np.int64(1163)],nan,nan,nan,nan,nan,,,,,,,,,,4,001,27,m,r,,,,,,,
,,38,4,001,27,m,r,calibration,0.85,2,-1,38,0.2414297750189407,-1.1448567343905092,1,False,2.218449599808082,False,dot,dot,0.3248137325298322,1.9217043912047143,347.8284948080533,553.0814184617623,1373,[np.int64(1101)],nan,nan,nan,nan,nan,,,,,,,,,,4,001,27,m,r,,,,,,,
,,39,4,001,27,m,r,calibration,0.85,2,-1,39,0.2414297750189407,-1.1448567343905092,0,False,0.8001161001157016,False,dot,square,0.31652172054864125,3.145810473716464,569.39169574268,380.7159996346086,1381,[np.int64(458)],nan,nan,nan,nan,nan,,,,,,,,,,4,001,27,m,r,,,,,,,
,,40,4,001,27,m,r,calibration,0.85,2,-1,40,0.2414297750189407,-1.1448567343905092,1,False,1.1306121998932213,False,dot,dot,0.30965970152659145,2.5504394840216085,461.6295466079111,294.36508192823845,802,[np.int64(600)],-1.2702963605907664,3.2391044684763246,2.035370920403217,0.020791768269566156,0.019927740485263076,,,,,,,,,,4,001,27,m,r,,,,,,,
,,41,4,001,27,m,r,calibration,0.85,2,-1,41,0.2414297750189407,-1.1448567343905092,1,False,1.2133454999420792,False,square,square,0.3030626650226828,3.1795835427189862,575.5046212321365,400.1482920741798,1316,[np.int64(504)],nan,nan,nan,nan,nan,,,,,,,,,,4,001,27,m,r,,,,,,,
,,42,4,001,27,m,r,calibration,0.85,2,-1,42,0.2414297750189407,-1.1448567343905092,1,False,1.1369543999899179,False,dot,dot,0.29680805568924556,3.024499332750267,547.4343792277983,454.0373656823688,1346,[np.int64(879)],nan,nan,nan,nan,nan,,,,,,,,,,4,001,27,m,r,,,,,,,
,,43,4,001,27,m,r,calibration,0.85,2,-1,43,0.2414297750189407,-1.1448567343905092,1,False,1.1537748000118881,False,square,square,0.2909547769692183,2.877925744538908,520.9045597615424,477.52879916553906,690,[np.int64(1217)],nan,nan,nan,nan,nan,,,,,,,,,,4,001,27,m,r,,,,,,,
,,44,4,001,27,m,r,calibration,0.85,2,-1,44,0.2414297750189407,-1.1448567343905092,1,False,1.335571700008586,False,dot,dot,0.2855431706333438,1.4524576557837083,262.8948356968512,398.5469464709103,151,[np.int64(1558)],nan,nan,nan,nan,nan,,,,,,,,,,4,001,27,m,r,,,,,,,
,,45,4,001,27,m,r,calibration,0.85,2,-1,45,0.2414297750189407,-1.1448567343905092,1,False,1.055932399816811,False,square,square,0.2805960131804135,4.163729481264483,753.6350361088715,133.36879548077323,182,[np.int64(1566)],nan,nan,nan,nan,nan,,,,,,,,,,4,001,27,m,r,,,,,,,
,,46,4,001,27,m,r,calibration,0.85,2,-1,46,0.19750845711691875,-1.4019399122156422,0,False,2.669636699836701,False,dot,square,0.25974516881842785,1.2127335570322473,219.50477382283677,151.30093326720387,1222,[np.int64(1514)],nan,nan,nan,nan,nan,,,,,,,,,,4,001,27,m,r,,,,,,,
,,47,4,001,27,m,r,calibration,0.85,2,-1,47,0.2414297750189407,-1.1448567343905092,0,False,0.8171802000142634,False,dot,square,0.2569156034292654,3.0849525942242524,558.3764195545897,433.31567603634204,1427,[np.int64(1048)],nan,nan,nan,nan,nan,,,,,,,,,,4,001,27,m,r,,,,,,,
,,48,4,001,27,m,r,calibration,0.85,2,-1,48,0.2414297750189407,-1.1448567343905092,1,False,1.1305599000770599,False,dot,dot,0.2514238335030879,2.947573682521473,533.5108365363866,325.9645257950049,189,[np.int64(1044)],nan,nan,nan,nan,nan,,,,,,,,,,4,001,27,m,r,,,,,,,
,,49,4,001,27,m,r,calibration,0.85,2,-1,49,0.2414297750189407,-1.1448567343905092,0,False,2.8191075001377612,False,square,dot,0.25089078037761503,1.2888222910735196,233.27683468430706,340.427655036485,528,[np.int64(1270)],nan,nan,nan,nan,nan,,,,,,,,,,4,001,27,m,r,,,,,,,
,,50,4,001,27,m,r,calibration,0.85,2,-1,50,0.29156950079727495,-0.887773556565376,1,False,1.1497629000805318,False,dot,dot,0.24303215183243743,3.0316212229802586,548.7234413594268,255.97069844333618,975,[np.int64(706)],-1.1895624743674744,3.227602782148508,2.0013626830753686,0.021600033730789274,0.020195292313465594,,,,,,,,,,4,001,27,m,r,,,,,,,
,,51,4,001,27,m,r,calibration,0.85,2,-1,51,0.29156950079727495,-0.887773556565376,1,False,0.9652408000547439,False,dot,dot,0.2361855006879622,3.6091442289596394,653.2551054416947,300.2586686947184,1085,[np.int64(660)],nan,nan,nan,nan,nan,,,,,,,,,,4,001,27,m,r,,,,,,,
,,52,4,001,27,m,r,calibration,0.85,2,-1,52,0.2414297750189407,-1.1448567343905092,1,False,0.7531359000131488,False,dot,dot,0.23200953308461802,2.7878774326858276,504.6058153161348,441.2984142255857,170,[np.int64(576)],nan,nan,nan,nan,nan,,,,,,,,,,4,001,27,m,r,,,,,,,
,,53,4,001,27,m,r,calibration,0.85,2,-1,53,0.2414297750189407,-1.1448567343905092,1,False,0.787246200023219,False,square,square,0.2281274070028575,2.9141986868344976,527.4699623170441,454.2622122290502,1337,[np.int64(1525)],nan,nan,nan,nan,nan,,,,,,,,,,4,001,27,m,r,,,,,,,
,,54,4,001,27,m,r,calibration,0.85,2,-1,54,0.2414297750189407,-1.1448567343905092,1,False,1.7868425999768078,False,square,square,0.2245267869726454,1.6500422448341077,298.6576463149735,279.5686067644096,1121,[np.int64(352)],nan,nan,nan,nan,nan,,,,,,,,,,4,001,27,m,r,,,,,,,
,,55,4,001,27,m,r,calibration,0.85,2,-1,55,0.2414297750189407,-1.1448567343905092,1,False,2.6376841999590397,False,dot,dot,0.2211941492798045,2.4962156547219725,451.815033504677,251.92433429571636,685,[np.int64(4)],nan,nan,nan,nan,nan,,,,,,,,,,4,001,27,m,r,,,,,,,
,,56,4,001,27,m,r,calibration,0.85,2,-1,56,0.2414297750189407,-1.1448567343905092,0,False,0.6213346000295132,False,dot,square,0.2176743197895975,3.055879896292971,553.1142612290278,287.4740890593134,330,[np.int64(319)],nan,nan,nan,nan,nan,,,,,,,,,,4,001,27,m,r,,,,,,,
,,57,4,001,27,m,r,calibration,0.85,2,-1,57,0.2414297750189407,-1.1448567343905092,1,False,1.149972900049761,False,square,square,0.2143389035614922,3.203620152291076,579.8552475646848,294.6481757022503,1448,[np.int64(1466)],nan,nan,nan,nan,nan,,,,,,,,,,4,001,27,m,r,,,,,,,
,,58,4,001,27,m,r,calibration,0.85,2,-1,58,0.2414297750189407,-1.1448567343905092,1,False,1.0671454998664558,False,square,square,0.21126565456141694,3.290580306886977,595.5950355465428,223.95343291428492,176,[np.int64(1574)],nan,nan,nan,nan,nan,,,,,,,,,,4,001,27,m,r,,,,,,,
,,59,4,001,27,m,r,calibration,0.85,2,-1,59,0.2414297750189407,-1.1448567343905092,1,False,1.1533252999652177,False,dot,dot,0.20843397967563074,2.7044311820959597,489.50204395936873,163.87917130936177,36,[np.int64(598)],nan,nan,nan,nan,nan,,,,,,,,,,4,001,27,m,r,,,,,,,
,,60,4,001,27,m,r,calibration,0.85,2,-1,60,0.2414297750189407,-1.1448567343905092,1,False,1.2218122000340372,False,dot,dot,0.2058243490241772,1.6791514466234834,303.92641183885047,406.8260786269442,1043,[np.int64(934)],-1.2941374704220563,3.4054994314561076,2.0921137596967934,0.02003589359443749,0.01956634651444651,,,,,,,,,,4,001,27,m,r,,,,,,,
,,61,4,001,27,m,r,calibration,0.85,2,-1,61,0.2414297750189407,-1.1448567343905092,1,False,1.0027505999896675,False,dot,dot,0.20341860996054767,2.325525808359075,420.9201713129926,381.49449864117173,881,[np.int64(795)],nan,nan,nan,nan,nan,,,,,,,,,,4,001,27,m,r,,,,,,,
,,62,4,001,27,m,r,calibration,0.85,2,-1,62,0.2414297750189407,-1.1448567343905092,1,False,0.918836300028488,False,dot,dot,0.2012001257121328,3.1144680149924944,563.7187107136415,119.60389655667561,1108,[np.int64(711)],nan,nan,nan,nan,nan,,,,,,,,,,4,001,27,m,r,,,,,,,
,,63,4,001,27,m,r,calibration,0.85,2,-1,63,0.2414297750189407,-1.1448567343905092,1,False,0.9038519999012351,False,dot,dot,0.19915378784181262,3.190183360906149,577.423188324013,326.8694299935187,111,[np.int64(1391)],nan,nan,nan,nan,nan,,,,,,,,,,4,001,27,m,r,,,,,,,
,,64,4,001,27,m,r,calibration,0.55,2,0,1,0.347354013008391,-0.6306903787402434,1,False,0.8867835998535156,False,square,square,0.9585022178944526,6.218808493248963,1125.6043372780623,312.94400487238636,475,[np.int64(640)],-0.6105307855798056,3.2449087058269095,2.055422663760532,0.0257181206205907,0.02148187862845949,,,,,,,,,,4,001,27,m,r,0.27418980629928313,True,,,,,
,,65,4,001,27,m,r,calibration,0.55,2,0,2,0.347354013008391,-0.6306903787402434,1,False,0.8863853998482227,False,dot,dot,0.9261401199953351,5.791888309028314,1048.3317839341248,479.8467304400663,525,[np.int64(572)],-0.8088180781535858,3.249478062754128,2.0577708660113303,0.025403727978280513,0.021413000928689013,,,,,,,,,,4,001,27,m,r,0.27418980629928313,True,,,,,
,,66,4,001,27,m,r,calibration,0.55,2,0,3,0.40766968306220214,-0.37360720091511007,1,False,0.7365250999573618,False,dot,dot,0.8644614427153365,6.424712243942464,1162.872916153586,234.82100587985119,230,[np.int64(516)],-0.9700635822792076,3.279681644503007,2.0687435841488386,0.025032186531235075,0.021327013668469365,,,,,,,,,,4,001,27,m,r,0.27418980629928313,True,,,,,
,,67,4,001,27,m,r,calibration,0.55,2,0,4,0.347354013008391,-0.6306903787402434,1,False,0.6179549999069422,False,square,square,0.8074724288348268,5.409984961529576,979.2072780368533,237.62431192365807,71,[np.int64(172)],-1.1190240970074623,3.311627193935783,2.081136767193931,0.024670840428403354,0.021238771821626617,,,,,,,,,,4,001,27,m,r,0.27418980629928313,True,,,,,
,,68,4,001,27,m,r,calibration,0.55,2,0,5,0.347354013008391,-0.6306903787402434,1,False,0.8202843000181019,False,square,square,0.7495926648821191,3.240921252171044,586.606746642959,108.91925054644832,1321,[np.int64(179)],-1.241575383088058,3.354074156241943,2.096974867907407,0.024293246696899848,0.021141592718768264,,,,,,,,,,4,001,27,m,r,0.27418980629928313,True,,,,,
,,69,4,001,27,m,r,calibration,0.55,2,0,6,0.29156950079727495,-0.887773556565376,1,False,0.9702383000403643,False,dot,dot,0.7023309908200142,4.839319400753213,875.9168115363316,502.46375571761206,84,[np.int64(609)],-1.3588216304629763,3.3918364397574012,2.1111728966575884,0.0239330736742811,0.02104422061423556,,,,,,,,,,4,001,27,m,r,0.27418980629928313,True,,,,,
,,70,4,001,27,m,r,calibration,0.55,2,0,7,0.2414297750189407,-1.1448567343905092,1,False,0.9870780000928789,False,square,square,0.6655040029490339,2.9452137465818287,533.083688131311,339.19982204852073,1317,[np.int64(130)],-1.4742093410781325,3.418155583309828,2.1207082838013434,0.02359503306669166,0.02094866297451967,,,,,,,,,,4,001,27,m,r,0.27418980629928313,True,,,,,
,,71,4,001,27,m,r,calibration,0.55,2,0,8,0.19750845711691875,-1.4019399122156422,1,False,1.0391321999486536,False,dot,dot,0.6379682339783546,1.4724180536640643,266.50766771319564,411.85373720909894,1340,[np.int64(1551)],-1.588994988127786,3.4288211960926755,2.1241451740947253,0.02328261508320846,0.020856746152409025,,,,,,,,,,4,001,27,m,r,0.27418980629928313,True,,,,,
,,72,4,001,27,m,r,calibration,0.55,2,0,9,0.19750845711691875,-1.4019399122156422,1,False,0.7200905999634415,False,dot,dot,0.6059317278816257,0.7592823671060506,137.43010844619516,522.4355746748569,147,[np.int64(677)],-1.692549820154733,3.4548528600272017,2.1336724946732715,0.022953510534505457,0.02075603978196749,,,,,,,,,,4,001,27,m,r,0.27418980629928313,True,,,,,
,,73,4,001,27,m,r,calibration,0.55,2,0,10,0.19750845711691875,-1.4019399122156422,1,False,2.886523799970746,False,dot,dot,0.5722401632078009,0.6782219266101572,122.75816871643846,180.16955187008136,1490,[np.int64(692)],-1.7833794753100891,3.4940182422271264,2.148042933167688,0.022611063708626276,0.020647000850147333,,,,,,,,,,4,001,27,m,r,0.27418980629928313,True,,,,,
,,74,4,001,27,m,r,calibration,0.55,2,0,11,0.15989317907384526,-1.659023090040775,0,False,0.753456800011918,False,dot,square,0.5462656804931465,1.3872710193416444,251.09605450083762,612.9404046233832,898,[np.int64(1571)],nan,nan,nan,nan,nan,,,,,,,,,,4,001,27,m,r,0.27418980629928313,True,,,,,
,,75,4,001,27,m,r,calibration,0.55,2,0,12,0.2414297750189407,-1.1448567343905092,1,False,1.6682458999566734,False,square,square,0.513511996774019,3.703591311269624,670.350027339802,483.8119949596588,703,[np.int64(1271)],nan,nan,nan,nan,nan,,,,,,,,,,4,001,27,m,r,0.27418980629928313,True,,,,,
,,76,4,001,27,m,r,calibration,0.55,2,0,13,0.19750845711691875,-1.4019399122156422,0,False,0.9650397000368685,False,dot,square,0.5029653296690518,3.082719902165723,557.9723022919959,371.33113466818435,602,[np.int64(1261)],nan,nan,nan,nan,nan,,,,,,,,,,4,001,27,m,r,0.27418980629928313,True,,,,,
,,77,4,001,27,m,r,calibration,0.55,2,0,14,0.29156950079727495,-0.887773556565376,1,False,1.0337072999682277,False,dot,dot,0.46639828278550444,3.8591544911313935,698.5069628947822,293.16187060904366,507,[np.int64(714)],nan,nan,nan,nan,nan,,,,,,,,,,4,001,27,m,r,0.27418980629928313,True,,,,,
,,78,4,001,27,m,r,calibration,0.55,2,0,15,0.29156950079727495,-0.887773556565376,1,False,0.8639123002067208,False,square,square,0.4366582552750491,4.80486302472603,869.6802074754114,457.3063921292838,1047,[np.int64(1417)],nan,nan,nan,nan,nan,,,,,,,,,,4,001,27,m,r,0.27418980629928313,True,,,,,
,,79,4,001,27,m,r,calibration,0.55,2,0,16,0.2414297750189407,-1.1448567343905092,1,False,1.7004637999925762,False,square,square,0.4165338636513619,4.189773087654376,758.3489288654421,430.58507548776635,1450,[np.int64(370)],nan,nan,nan,nan,nan,,,,,,,,,,4,001,27,m,r,0.27418980629928313,True,,,,,
,,80,4,001,27,m,r,calibration,0.55,2,0,17,0.19750845711691875,-1.4019399122156422,0,False,0.851469699991867,False,dot,square,0.39624579170454527,1.94943452166113,352.84764842066454,205.75573755547242,562,[np.int64(155)],nan,nan,nan,nan,nan,,,,,,,,,,4,001,27,m,r,0.27418980629928313,True,,,,,
,,81,4,001,27,m,r,calibration,0.55,2,0,18,0.29156950079727495,-0.887773556565376,1,False,0.7148927999660373,False,square,square,0.3704490528320576,2.1814335800081968,394.83947798148364,303.8719692449991,70,[np.int64(295)],nan,nan,nan,nan,nan,,,,,,,,,,4,001,27,m,r,0.27418980629928313,True,,,,,
,,82,4,001,27,m,r,calibration,0.55,2,0,19,0.2414297750189407,-1.1448567343905092,1,False,0.6310994999948889,False,square,square,0.3538805702776805,2.546032325400252,460.8318508974456,391.91670826862025,210,[np.int64(643)],nan,nan,nan,nan,nan,,,,,,,,,,4,001,27,m,r,0.27418980629928313,True,,,,,
,,83,4,001,27,m,r,calibration,0.55,2,0,20,0.2414297750189407,-1.1448567343905092,1,False,1.318956800037995,False,dot,dot,0.33994119535044215,1.7457622842752314,315.9829734538169,312.02139027139754,1104,[np.int64(1504)],-1.3932978773734588,3.7198420922222666,2.2374129313742652,0.023172685675116277,0.02078925708618211,,,,,,,,,,4,001,27,m,r,0.27418980629928313,True,,,,,
,,84,4,001,27,m,r,calibration,0.55,2,0,21,0.2414297750189407,-1.1448567343905092,1,False,0.9530716000590473,False,square,square,0.32845719025218817,3.4555011704856584,625.4457118579041,393.23736295956377,1464,[np.int64(652)],nan,nan,nan,nan,nan,,,,,,,,,,4,001,27,m,r,0.27418980629928313,True,,,,,
,,85,4,001,27,m,r,calibration,0.55,2,0,22,0.19750845711691875,-1.4019399122156422,1,False,0.8037731000222266,False,dot,dot,0.3253006504353101,1.685064130738149,304.996607663605,305.84305228115585,166,[np.int64(961)],nan,nan,nan,nan,nan,,,,,,,,,,4,001,27,m,r,0.27418980629928313,True,,,,,
,,86,4,001,27,m,r,calibration,0.55,2,0,23,0.19750845711691875,-1.4019399122156422,1,False,2.9013939001597464,False,dot,dot,0.3224045882445684,2.642644189317779,478.318598266518,317.93993465023243,1539,[np.int64(1438)],nan,nan,nan,nan,nan,,,,,,,,,,4,001,27,m,r,0.27418980629928313,True,,,,,
,,87,4,001,27,m,r,calibration,0.55,2,0,24,0.19750845711691875,-1.4019399122156422,1,False,1.5694571998901665,False,dot,dot,0.3197104085198942,2.3586700126045645,426.9192722814262,481.13633045650107,1583,[np.int64(820)],nan,nan,nan,nan,nan,,,,,,,,,,4,001,27,m,r,0.27418980629928313,True,,,,,
,,88,4,001,27,m,r,calibration,0.55,2,0,25,0.19750845711691875,-1.4019399122156422,1,False,1.037009600084275,False,square,square,0.3171825624755575,3.6334354050786093,657.6518083192283,224.30682825791914,522,[np.int64(1441)],nan,nan,nan,nan,nan,,,,,,,,,,4,001,27,m,r,0.27418980629928313,True,,,,,
,,89,4,001,27,m,r,calibration,0.55,2,0,26,0.15989317907384526,-1.659023090040775,0,False,1.4693354999180883,False,dot,square,0.27550147249611867,1.5766879263524909,285.38051466980085,123.46383051913129,996,[np.int64(650)],nan,nan,nan,nan,nan,,,,,,,,,,4,001,27,m,r,0.27418980629928313,True,,,,,
,,90,4,001,27,m,r,calibration,0.55,2,0,27,0.19750845711691875,-1.4019399122156422,1,False,1.0145775999408215,False,square,square,0.27132580554844915,3.076571449553227,556.8594323691341,449.56180969261254,1229,[np.int64(755)],nan,nan,nan,nan,nan,,,,,,,,,,4,001,27,m,r,0.27418980629928313,True,,,,,
,,91,4,001,27,m,r,calibration,0.55,2,0,28,0.19750845711691875,-1.4019399122156422,0,False,0.9315653000958264,False,dot,square,0.2573903065161303,2.652977260571801,480.18888416349597,325.5968411839443,1341,[np.int64(1562)],nan,nan,nan,nan,nan,,,,,,,,,,4,001,27,m,r,0.27418980629928313,True,,,,,
,,92,4,001,27,m,r,calibration,0.55,2,0,29,0.2414297750189407,-1.1448567343905092,1,False,1.0001610000617802,False,dot,dot,0.24830648433863933,2.470445642596513,447.1506613099689,433.9749267797006,1540,[np.int64(29)],nan,nan,nan,nan,nan,,,,,,,,,,4,001,27,m,r,0.27418980629928313,True,,,,,
,,93,4,001,27,m,r,calibration,0.55,2,0,30,0.19750845711691875,-1.4019399122156422,1,False,2.5997631000354886,False,dot,dot,0.244461142364153,2.1398943855908894,387.32088379195096,208.3123441021551,1116,[np.int64(982)],-1.4558543819735112,3.9592665420120645,2.3290763833641845,0.022358841976552593,0.020511455821142808,,,,,,,,,,4,001,27,m,r,0.27418980629928313,True,,,,,
,,94,4,001,27,m,r,calibration,0.55,2,0,31,0.19750845711691875,-1.4019399122156422,1,False,1.0860751001164317,False,dot,dot,0.2410661216385423,2.9121396218902627,527.0972715621375,285.57973740623686,895,[np.int64(265)],nan,nan,nan,nan,nan,,,,,,,,,,4,001,27,m,r,0.27418980629928313,True,,,,,
,,95,4,001,27,m,r,calibration,0.55,2,0,32,0.19750845711691875,-1.4019399122156422,0,False,2.151166400173679,False,dot,square,0.23115665040711766,2.3063731031800874,417.4535316755958,203.5000822452914,1542,[np.int64(1483)],nan,nan,nan,nan,nan,,,,,,,,,,4,001,27,m,r,0.27418980629928313,True,,,,,
,,96,4,001,27,m,r,calibration,0.55,2,0,33,0.2414297750189407,-1.1448567343905092,1,False,1.3847139000426978,False,dot,dot,0.22361048038605522,3.363835638941287,608.854250648373,413.22827581288703,387,[np.int64(756)],nan,nan,nan,nan,nan,,,,,,,,,,4,001,27,m,r,0.27418980629928313,True,,,,,
,,97,4,001,27,m,r,calibration,0.55,2,0,34,0.2414297750189407,-1.1448567343905092,1,False,0.8834162999410182,False,square,square,0.21735508992929173,2.740684358889741,496.06386895904313,161.03419879824236,913,[np.int64(1009)],nan,nan,nan,nan,nan,,,,,,,,,,4,001,27,m,r,0.27418980629928313,True,,,,,
,,98,4,001,27,m,r,calibration,0.55,2,0,35,0.19750845711691875,-1.4019399122156422,1,False,0.9701666000764817,False,square,square,0.21490177175770336,2.5264988468588396,457.29629128145,238.51274729601204,69,[np.int64(97)],nan,nan,nan,nan,nan,,,,,,,,,,4,001,27,m,r,0.27418980629928313,True,,,,,
,,99,4,001,27,m,r,calibration,0.55,2,0,36,0.19750845711691875,-1.4019399122156422,1,False,0.9878716999664903,False,dot,dot,0.21273407882641454,1.2125080927725223,219.46396479182653,338.4764765979782,1444,[np.int64(689)],nan,nan,nan,nan,nan,,,,,,,,,,4,001,27,m,r,0.27418980629928313,True,,,,,
,,100,4,001,27,m,r,calibration,0.55,2,0,37,0.19750845711691875,-1.4019399122156422,0,False,0.888020999962464,False,dot,square,0.2034094860798559,3.0023607864687767,543.4273023508485,622.8429700370555,805,[np.int64(1424)],nan,nan,nan,nan,nan,,,,,,,,,,4,001,27,m,r,0.27418980629928313,True,,,,,
,,101,4,001,27,m,r,calibration,0.55,2,0,38,0.2414297750189407,-1.1448567343905092,1,False,0.6832288999576122,False,dot,dot,0.19815437698304053,2.139311423550435,387.21536766262875,154.73916611541128,1409,[np.int64(1191)],nan,nan,nan,nan,nan,,,,,,,,,,4,001,27,m,r,0.27418980629928313,True,,,,,
,,102,4,001,27,m,r,calibration,0.55,2,0,39,0.19750845711691875,-1.4019399122156422,1,False,1.813847600016743,False,square,square,0.1960741711790162,2.3186720328141,419.6796379393521,222.77852298194472,678,[np.int64(894)],nan,nan,nan,nan,nan,,,,,,,,,,4,001,27,m,r,0.27418980629928313,True,,,,,
,,103,4,001,27,m,r,calibration,0.55,2,0,40,0.19750845711691875,-1.4019399122156422,0,False,0.901115900138393,False,dot,square,0.18969687167331278,0.9483999504149335,171.66039102510297,484.3980309640975,1245,[np.int64(710)],-1.382770338345366,4.015329397469414,2.334075204690576,0.02302673546930642,0.0206938780383796,,,,,,,,,,4,001,27,m,r,0.27418980629928313,True,,,,,
,,104,4,001,27,m,r,calibration,0.55,2,0,41,0.2414297750189407,-1.1448567343905092,1,False,0.6963615000713617,False,dot,dot,0.18466264687465772,2.5039609406965235,453.2169302660708,228.56336460323763,1033,[np.int64(1171)],nan,nan,nan,nan,nan,,,,,,,,,,4,001,27,m,r,0.27418980629928313,True,,,,,
,,105,4,001,27,m,r,calibration,0.55,2,0,42,0.2414297750189407,-1.1448567343905092,0,False,0.8495150001253933,False,dot,square,0.19211875734735992,2.052352338390963,371.47577324876437,340.9179982842766,305,[np.int64(1301)],nan,nan,nan,nan,nan,,,,,,,,,,4,001,27,m,r,0.27418980629928313,True,,,,,
,,106,4,001,27,m,r,calibration,0.55,2,0,43,0.2414297750189407,-1.1448567343905092,1,False,0.7833793999161571,False,square,square,0.1864499629817239,4.178479496139964,756.3047888013334,443.0436291321914,1255,[np.int64(734)],nan,nan,nan,nan,nan,,,,,,,,,,4,001,27,m,r,0.27418980629928313,True,,,,,
,,107,4,001,27,m,r,calibration,0.55,2,0,44,0.2414297750189407,-1.1448567343905092,1,False,0.7802571000065655,False,square,square,0.1815749665886579,3.6504043003258726,660.723178358983,350.15178570804375,780,[np.int64(784)],nan,nan,nan,nan,nan,,,,,,,,,,4,001,27,m,r,0.27418980629928313,True,,,,,
,,108,4,001,27,m,r,calibration,0.55,2,0,45,0.2414297750189407,-1.1448567343905092,1,False,1.5694434000179172,False,dot,dot,0.17736939921650716,1.7554625061083418,317.73871360560986,364.50949115173916,980,[np.int64(266)],nan,nan,nan,nan,nan,,,,,,,,,,4,001,27,m,r,0.27418980629928313,True,,,,,
,,109,4,001,27,m,r,calibration,0.55,2,0,46,0.2414297750189407,-1.1448567343905092,1,False,1.153018199838698,False,square,square,0.17372943367516325,2.7083361792032496,490.2088484357882,202.3194775480158,763,[np.int64(57)],nan,nan,nan,nan,nan,,,,,,,,,,4,001,27,m,r,0.27418980629928313,True,,,,,
,,110,4,001,27,m,r,calibration,0.55,2,0,47,0.2414297750189407,-1.1448567343905092,1,False,0.8707320999819785,False,square,square,0.170568816859611,2.064949936437235,373.7559384951395,475.5427458232863,360,[np.int64(859)],nan,nan,nan,nan,nan,,,,,,,,,,4,001,27,m,r,0.27418980629928313,True,,,,,
,,111,4,001,27,m,r,calibration,0.55,2,0,48,0.19750845711691875,-1.4019399122156422,1,False,1.1188711000140756,False,dot,dot,0.1696562322805483,1.712455288230698,309.95440716975634,335.74961976519586,378,[np.int64(1521)],nan,nan,nan,nan,nan,,,,,,,,,,4,001,27,m,r,0.27418980629928313,True,,,,,
,,112,4,001,27,m,r,calibration,0.55,2,0,49,0.19750845711691875,-1.4019399122156422,1,False,0.9319174999836832,False,dot,dot,0.16883430477004518,0.7893019040889139,142.8636446400934,335.3867802790455,183,[np.int64(58)],nan,nan,nan,nan,nan,,,,,,,,,,4,001,27,m,r,0.27418980629928313,True,,,,,
,,113,4,001,27,m,r,calibration,0.55,2,0,50,0.19750845711691875,-1.4019399122156422,1,False,0.836652500089258,False,square,square,0.16809069738663054,2.555594032775205,462.56251993231206,462.94214020064373,1527,[np.int64(1102)],-1.4429629997713223,4.03607176048469,2.2988811365491073,0.021821725274212632,0.020263448036953492,,,,,,,,,,4,001,27,m,r,0.27418980629928313,True,,,,,
,,114,4,001,27,m,r,calibration,0.55,2,0,51,0.19750845711691875,-1.4019399122156422,1,False,1.1050704999361187,False,square,square,0.16741517741457743,1.733987752984273,313.85178329015343,487.45404498239975,136,[np.int64(22)],nan,nan,nan,nan,nan,,,,,,,,,,4,001,27,m,r,0.27418980629928313,True,,,,,
,,115,4,001,27,m,r,calibration,0.55,2,0,52,0.19750845711691875,-1.4019399122156422,1,False,1.2536811998579651,False,dot,dot,0.16679938879654893,2.9560594338581376,535.0467575283229,458.0269682381057,1478,[np.int64(543)],nan,nan,nan,nan,nan,,,,,,,,,,4,001,27,m,r,0.27418980629928313,True,,,,,
,,116,4,001,27,m,r,calibration,0.55,2,0,53,0.19750845711691875,-1.4019399122156422,1,False,0.9693023001309484,False,square,square,0.166236603268243,2.304413485064148,417.0988407966107,266.99119366797555,93,[np.int64(205)],nan,nan,nan,nan,nan,,,,,,,,,,4,001,27,m,r,0.27418980629928313,True,,,,,
,,117,4,001,27,m,r,calibration,0.55,2,0,54,0.19750845711691875,-1.4019399122156422,1,False,1.1529679000377655,False,square,square,0.1657214686401085,3.033907315727206,549.1372241466242,364.8320850427981,952,[np.int64(379)],nan,nan,nan,nan,nan,,,,,,,,,,4,001,27,m,r,0.27418980629928313,True,,,,,
,,118,4,001,27,m,r,calibration,0.55,2,0,55,0.19750845711691875,-1.4019399122156422,0,False,1.5353780000004917,False,dot,square,0.15784412564357717,2.4874539445479296,450.22916396317527,471.47874195919115,493,[np.int64(538)],nan,nan,nan,nan,nan,,,,,,,,,,4,001,27,m,r,0.27418980629928313,True,,,,,
,,119,4,001,27,m,r,calibration,0.55,2,0,56,0.19750845711691875,-1.4019399122156422,1,False,0.7643995999824256,False,square,square,0.15717287833065188,3.614159849076676,654.1629326828784,412.1964506703542,547,[np.int64(388)],nan,nan,nan,nan,nan,,,,,,,,,,4,001,27,m,r,0.27418980629928313,True,,,,,
,,120,4,001,27,m,r,calibration,0.55,2,0,57,0.19750845711691875,-1.4019399122156422,1,False,0.8142824000678957,False,square,square,0.1565619947734445,1.9730247705098525,357.1174834622833,306.0101939716058,739,[np.int64(121)],nan,nan,nan,nan,nan,,,,,,,,,,4,001,27,m,r,0.27418980629928313,True,,,,,
,,121,4,001,27,m,r,calibration,0.55,2,0,58,0.19750845711691875,-1.4019399122156422,1,False,0.9202429000288248,False,square,square,0.15600566847528233,2.229954771311645,403.6218136074077,228.61168517042745,922,[np.int64(1181)],nan,nan,nan,nan,nan,,,,,,,,,,4,001,27,m,r,0.27418980629928313,True,,,,,
,,122,4,001,27,m,r,calibration,0.55,2,0,59,0.19750845711691875,-1.4019399122156422,1,False,0.8004471999593079,False,dot,dot,0.1554988804443663,2.2222215988945386,402.22210939991146,230.27593538714828,362,[np.int64(329)],nan,nan,nan,nan,nan,,,,,,,,,,4,001,27,m,r,0.27418980629928313,True,,,,,
,,123,4,001,27,m,r,calibration,0.55,2,0,60,0.19750845711691875,-1.4019399122156422,0,False,0.8346764999441803,False,dot,square,0.14907514479528097,2.632767884112171,476.53098702430293,278.08637767791674,410,[np.int64(707)],-1.458735012131754,3.9387747464798903,2.2418583115206414,0.021583303592384882,0.020151078950709087,,,,,,,,,,4,001,27,m,r,0.27418980629928313,True,,,,,
,,124,4,001,27,m,r,test,,2,1,1,0.27418980629928313,,1,False,1.1303856000304222,False,img_A,img_A,,3.52058103026364,630.1840044171915,274.874225893149,498,[np.int64(1180)],,,,,,high,0.27418980629928313,7,pantsuit_07s,eggplant_05n,13,23,33,41,4,001,27,m,r,0.27418980629928313,True,0.10218405432057473,True,"['high', 'low', 'high', 'low', 'high', 'low']",high,
,,125,4,001,27,m,r,test,,2,1,2,0.27418980629928313,,1,False,1.5619467000942677,False,img_A,img_A,,2.691663312699163,487.1910595985485,255.03687822752465,632,[np.int64(1119)],,,,,,high,0.27418980629928313,7,sandbox_10s,waffle_06s,13,23,33,41,4,001,27,m,r,0.27418980629928313,True,0.10218405432057473,True,"['high', 'low', 'high', 'low', 'high', 'low']",high,
,,126,4,001,27,m,r,test,,2,1,3,0.27418980629928313,,1,False,1.360026199836284,False,img_B,img_B,,3.0354381235974977,549.4143003711471,280.1040272662561,615,[np.int64(570)],,,,,,high,0.27418980629928313,7,meatball_16s,saltshaker_07s,13,23,33,41,4,001,27,m,r,0.27418980629928313,True,0.10218405432057473,True,"['high', 'low', 'high', 'low', 'high', 'low']",high,
,,127,4,001,27,m,r,test,,2,1,4,0.27418980629928313,,1,False,0.980582799995318,False,img_B,img_B,,4.268113576848337,772.528557409549,227.29084599539578,1310,[np.int64(83)],,,,,,high,0.27418980629928313,7,crouton_12s,undershirt_12s,13,23,33,41,4,001,27,m,r,0.27418980629928313,True,0.10218405432057473,True,"['high', 'low', 'high', 'low', 'high', 'low']",high,
,,128,4,001,27,m,r,test,,2,1,5,0.27418980629928313,,1,False,1.1481703000608832,False,img_B,img_B,,5.12518109607276,927.6577783891696,307.61928428946777,158,[np.int64(1497)],,,,,,high,0.27418980629928313,7,limousine_01s,otter_12s,13,23,33,41,4,001,27,m,r,0.27418980629928313,True,0.10218405432057473,True,"['high', 'low', 'high', 'low', 'high', 'low']",high,
,,129,4,001,27,m,r,test,,2,1,6,0.27418980629928313,,1,False,0.9446163000538945,False,img_B,img_B,,3.1448780261996054,569.2229227421286,403.4914031002096,1465,[np.int64(1003)],,,,,,high,0.27418980629928313,7,brush_04s,walrus_02n,13,23,33,41,4,001,27,m,r,0.27418980629928313,True,0.10218405432057473,True,"['high', 'low', 'high', 'low', 'high', 'low']",high,
,,130,4,001,27,m,r,test,,2,1,7,0.27418980629928313,,1,False,0.8786335999611765,False,img_B,img_B,,4.1589327794622255,752.7668330826627,363.9736840442781,1573,[np.int64(94)],,,,,,high,0.27418980629928313,7,pretzel_07s,salami_08s,13,23,33,41,4,001,27,m,r,0.27418980629928313,True,0.10218405432057473,True,"['high', 'low', 'high', 'low', 'high', 'low']",high,
,,131,4,001,27,m,r,test,,2,1,8,0.27418980629928313,,1,False,0.9650166998617351,False,img_A,img_A,,3.064691464143874,554.7091550100412,317.8925730313952,233,[np.int64(1303)],,,,,,high,0.27418980629928313,7,shears_04s,drumstick_12s,13,23,33,41,4,001,27,m,r,0.27418980629928313,True,0.10218405432057473,True,"['high', 'low', 'high', 'low', 'high', 'low']",high,
,,132,4,001,27,m,r,test,,2,1,9,0.27418980629928313,,1,False,1.2627516998909414,False,img_B,img_B,,0.9826264083343504,177.85537990851742,221.28540929840256,1194,[np.int64(611)],,,,,,high,0.27418980629928313,7,koala_10s,light_switch_17s,13,23,33,41,4,001,27,m,r,0.27418980629928313,True,0.10218405432057473,True,"['high', 'low', 'high', 'low', 'high', 'low']",high,
,,133,4,001,27,m,r,test,,2,1,10,0.27418980629928313,,1,False,1.1464998999144882,False,img_A,img_A,,3.3385610209588457,604.279544793551,412.4761813645917,242,[np.int64(630)],,,,,,high,0.27418980629928313,7,bracelet1_05s,chopsticks_04s,13,23,33,41,4,001,27,m,r,0.27418980629928313,True,0.10218405432057473,True,"['high', 'low', 'high', 'low', 'high', 'low']",high,
,,134,4,001,27,m,r,test,,2,1,11,0.27418980629928313,,1,False,0.9901037998497486,False,img_A,img_A,,3.755711826360293,679.783840571213,261.8122526528776,939,[np.int64(1305)],,,,,,high,0.27418980629928313,7,paint_10s,iceskate_14s,13,23,33,41,4,001,27,m,r,0.27418980629928313,True,0.10218405432057473,True,"['high', 'low', 'high', 'low', 'high', 'low']",high,
,,135,4,001,27,m,r,test,,2,1,12,0.27418980629928313,,1,False,0.8628813999239355,False,img_A,img_A,,3.152327457003629,570.5712697176568,262.30259660603735,114,[np.int64(947)],,,,,,high,0.27418980629928313,7,bunkbed_06s,dishrag_10s,13,23,33,41,4,001,27,m,r,0.27418980629928313,True,0.10218405432057473,True,"['high', 'low', 'high', 'low', 'high', 'low']",high,
,,136,4,001,27,m,r,test,,2,1,13,0.27418980629928313,,1,False,0.8946201000362635,False,img_A,img_A,,3.9797521044624564,720.3351309077046,356.21611190649213,60,[np.int64(1467)],,,,,,high,0.27418980629928313,7,cross_14s,clasp_09s,13,23,33,41,4,001,27,m,r,0.27418980629928313,True,0.10218405432057473,True,"['high', 'low', 'high', 'low', 'high', 'low']",high,
,,137,4,001,27,m,r,test,,2,1,14,0.27418980629928313,,1,False,1.4447712001856416,False,img_B,img_B,,1.992054222104422,360.56181420090036,367.50845984185537,365,[np.int64(1338)],,,,,,high,0.27418980629928313,7,quiche_07s,mulberry_02s,13,23,33,41,4,001,27,m,r,0.27418980629928313,True,0.10218405432057473,True,"['high', 'low', 'high', 'low', 'high', 'low']",high,
,,138,4,001,27,m,r,test,,2,1,15,0.27418980629928313,,1,False,1.1446773000061512,False,img_A,img_A,,3.2675303160586346,591.4229872066129,193.29691948673093,1111,[np.int64(769)],,,,,,high,0.27418980629928313,7,headband_09s,corset_08s,13,23,33,41,4,001,27,m,r,0.27418980629928313,True,0.10218405432057473,True,"['high', 'low', 'high', 'low', 'high', 'low']",high,
,,139,4,001,27,m,r,test,,2,1,16,0.27418980629928313,,1,False,0.900449100183323,False,img_A,img_A,,3.0100727607400657,544.8231696939519,463.09446154613704,200,[np.int64(924)],,,,,,high,0.27418980629928313,7,hamster_07s,coin_03s,13,23,33,41,4,001,27,m,r,0.27418980629928313,True,0.10218405432057473,True,"['high', 'low', 'high', 'low', 'high', 'low']",high,
,,140,4,001,27,m,r,test,,2,1,17,0.27418980629928313,,1,False,2.79378980002366,False,img_B,img_B,,4.090552787807369,740.3900545931339,357.1397017449847,1057,[np.int64(591)],,,,,,high,0.27418980629928313,4,kazoo_08s,juicer1_06s,13,23,33,41,4,001,27,m,r,0.27418980629928313,True,0.10218405432057473,True,"['high', 'low', 'high', 'low', 'high', 'low']",high,
,,141,4,001,27,m,r,test,,2,1,18,0.27418980629928313,,1,False,0.8470562999136746,False,img_B,img_B,,2.6539770699250536,480.36984965643467,160.2955983488342,704,[np.int64(1367)],,,,,,high,0.27418980629928313,7,glove_13s,jelly_bean_13n,13,23,33,41,4,001,27,m,r,0.27418980629928313,True,0.10218405432057473,True,"['high', 'low', 'high', 'low', 'high', 'low']",high,
,,142,4,001,27,m,r,test,,2,1,19,0.27418980629928313,,1,False,0.6627100999467075,False,img_B,img_B,,3.6887958550733235,667.6720497682716,274.76331947484164,915,[np.int64(228)],,,,,,high,0.27418980629928313,7,shower_cap_12s,dolphin_09n,13,23,33,41,4,001,27,m,r,0.27418980629928313,True,0.10218405432057473,True,"['high', 'low', 'high', 'low', 'high', 'low']",high,
,,143,4,001,27,m,r,test,,2,1,20,0.27418980629928313,,1,False,0.848135800100863,False,img_B,img_B,,4.278299643493445,774.3722354723135,70.45920209060738,1078,[np.int64(519)],,,,,,high,0.27418980629928313,7,sweeper_02s,breadstick_14s,13,23,33,41,4,001,27,m,r,0.27418980629928313,True,0.10218405432057473,True,"['high', 'low', 'high', 'low', 'high', 'low']",high,
,,144,4,001,27,m,r,test,,2,2,1,0.10218405432057473,,0,False,1.4989996999502182,False,img_A,img_B,,2.08150061942382,376.7516121157114,263.1844468711967,910,[np.int64(343)],,,,,,low,0.10218405432057473,4,hobbyhorse_04s,quesadilla_23s,11,21,31,42,4,001,27,m,r,0.27418980629928313,True,0.10218405432057473,True,"['high', 'low', 'high', 'low', 'high', 'low']",high,
,,145,4,001,27,m,r,test,,2,2,2,0.10218405432057473,,0,False,0.8487649001181126,False,img_B,img_A,,0.5262578779521462,95.25267590933845,304.33588036641027,1416,[np.int64(137)],,,,,,low,0.10218405432057473,7,pocket_01b,kangaroo_11s,11,21,31,42,4,001,27,m,r,0.27418980629928313,True,0.10218405432057473,True,"['high', 'low', 'high', 'low', 'high', 'low']",high,
,,146,4,001,27,m,r,test,,2,2,3,0.10218405432057473,,1,False,0.912005300167948,False,img_A,img_A,,0.9490973373964373,171.78661806875516,154.61700931687906,185,[np.int64(715)],,,,,,low,0.10218405432057473,5,dip_05s,elephant_07n,11,21,31,41,4,001,27,m,r,0.27418980629928313,True,0.10218405432057473,True,"['high', 'low', 'high', 'low', 'high', 'low']",high,
,,147,4,001,27,m,r,test,,2,2,4,0.10218405432057473,,1,False,1.5613557000178844,False,img_B,img_B,,1.9455987734340725,352.15337799156714,322.081462689674,1027,[np.int64(39)],,,,,,low,0.10218405432057473,4,lighter_08s,electric_chair_09s,11,21,31,41,4,001,27,m,r,0.27418980629928313,True,0.10218405432057473,True,"['high', 'low', 'high', 'low', 'high', 'low']",high,
,,148,4,001,27,m,r,test,,2,2,5,0.10218405432057473,,0,False,1.6940756000112742,False,img_A,img_B,,1.2224012139818397,221.25461973071296,148.24897018662122,31,[np.int64(1275)],,,,,,low,0.10218405432057473,5,shark_07s,green_beans_12s,11,21,31,42,4,001,27,m,r,0.27418980629928313,True,0.10218405432057473,True,"['high', 'low', 'high', 'low', 'high', 'low']",high,
,,149,4,001,27,m,r,test,,2,2,6,0.10218405432057473,,1,False,1.1293382998555899,False,img_A,img_A,,2.0400200334021514,369.24362604578937,245.71066367618866,745,[np.int64(1029)],,,,,,low,0.10218405432057473,5,toothbrush_01s,banana_06s,11,21,31,41,4,001,27,m,r,0.27418980629928313,True,0.10218405432057473,True,"['high', 'low', 'high', 'low', 'high', 'low']",high,
,,150,4,001,27,m,r,test,,2,2,7,0.10218405432057473,,0,False,1.281851900042966,False,img_B,img_A,,0.770666078421229,139.49056019424245,448.6563298280316,1352,[np.int64(1351)],,,,,,low,0.10218405432057473,4,pepper2_07s,chick_06s,11,21,31,42,4,001,27,m,r,0.27418980629928313,True,0.10218405432057473,True,"['high', 'low', 'high', 'low', 'high', 'low']",high,
,,151,4,001,27,m,r,test,,2,2,8,0.10218405432057473,,1,False,0.9285176999401301,False,img_A,img_A,,1.8479546335544594,334.4797886733572,332.6589710469069,1543,[np.int64(908)],,,,,,low,0.10218405432057473,6,peanut_butter_07s,memory_stick_05s,11,21,31,41,4,001,27,m,r,0.27418980629928313,True,0.10218405432057473,True,"['high', 'low', 'high', 'low', 'high', 'low']",high,
,,152,4,001,27,m,r,test,,2,2,9,0.10218405432057473,,1,False,0.8303897997830063,False,img_B,img_B,,1.3442761844501343,243.31398938547431,292.26406455436916,1150,[np.int64(12)],,,,,,low,0.10218405432057473,6,boxer_shorts_03s,washing_machine_05s,11,21,31,41,4,001,27,m,r,0.27418980629928313,True,0.10218405432057473,True,"['high', 'low', 'high', 'low', 'high', 'low']",high,
,,153,4,001,27,m,r,test,,2,2,10,0.10218405432057473,,1,False,1.0626326000783592,False,img_B,img_B,,1.188289287946923,215.08036111839306,435.3956409741589,358,[np.int64(90)],,,,,,low,0.10218405432057473,5,leggings_12s,blindfold_15s,11,21,31,41,4,001,27,m,r,0.27418980629928313,True,0.10218405432057473,True,"['high', 'low', 'high', 'low', 'high', 'low']",high,
,,154,4,001,27,m,r,test,,2,2,11,0.10218405432057473,,1,False,0.8119196000043303,False,img_B,img_B,,1.2487251850116172,226.01925848710272,280.90511686829933,120,[np.int64(46)],,,,,,low,0.10218405432057473,6,curling_iron_05s,yarn_14s,11,21,31,41,4,001,27,m,r,0.27418980629928313,True,0.10218405432057473,True,"['high', 'low', 'high', 'low', 'high', 'low']",high,
,,155,4,001,27,m,r,test,,2,2,12,0.10218405432057473,,0,False,0.8474906999617815,False,img_B,img_A,,1.0837612930313372,196.160794038672,578.243893746899,1547,[np.int64(874)],,,,,,low,0.10218405432057473,6,polo_shirt_04s,cigarette_09s,11,21,31,42,4,001,27,m,r,0.27418980629928313,True,0.10218405432057473,True,"['high', 'low', 'high', 'low', 'high', 'low']",high,
,,156,4,001,27,m,r,test,,2,2,13,0.10218405432057473,,1,False,2.0427967999130487,False,img_A,img_A,,0.9942278564766022,179.955242022265,366.94708925637826,1188,[np.int64(1141)],,,,,,low,0.10218405432057473,4,cheese_05n,dalmatian_10s,11,21,31,41,4,001,27,m,r,0.27418980629928313,True,0.10218405432057473,True,"['high', 'low', 'high', 'low', 'high', 'low']",high,
,,157,4,001,27,m,r,test,,2,2,14,0.10218405432057473,,0,False,1.0276519001927227,False,img_A,img_B,,1.0588857772539244,191.6583256829603,164.05180362587316,66,[np.int64(1480)],,,,,,low,0.10218405432057473,5,headset_03s,pinball_02s,11,21,31,42,4,001,27,m,r,0.27418980629928313,True,0.10218405432057473,True,"['high', 'low', 'high', 'low', 'high', 'low']",high,
,,158,4,001,27,m,r,test,,2,2,15,0.10218405432057473,,1,False,0.8808236999902874,False,img_B,img_B,,0.5023291168409426,90.92157014821062,283.0301963881527,141,[np.int64(1443)],,,,,,low,0.10218405432057473,4,rooster_07s,bowling_ball_01b,11,21,31,41,4,001,27,m,r,0.27418980629928313,True,0.10218405432057473,True,"['high', 'low', 'high', 'low', 'high', 'low']",high,
,,159,4,001,27,m,r,test,,2,2,16,0.10218405432057473,,0,False,1.8947346000932157,False,img_B,img_A,,0.3300645010174651,59.74167468416118,379.74455530284223,887,[np.int64(1290)],,,,,,low,0.10218405432057473,4,coffee_bean_12s,gearshift_03n,11,21,31,42,4,001,27,m,r,0.27418980629928313,True,0.10218405432057473,True,"['high', 'low', 'high', 'low', 'high', 'low']",high,
,,160,4,001,27,m,r,test,,2,2,17,0.10218405432057473,,0,False,1.1792750998865813,False,img_B,img_A,,1.3943286207724848,252.37348035981972,306.5811888593489,932,[np.int64(55)],,,,,,low,0.10218405432057473,4,candy_cane_05s,football_01b,11,21,31,42,4,001,27,m,r,0.27418980629928313,True,0.10218405432057473,True,"['high', 'low', 'high', 'low', 'high', 'low']",high,
,,161,4,001,27,m,r,test,,2,2,18,0.10218405432057473,,1,False,1.0786727999802679,False,img_A,img_A,,0.2551291606262764,46.17837807335603,532.6028239807313,15,[np.int64(594)],,,,,,low,0.10218405432057473,4,faucet_09s,peppermint_10s,11,21,31,41,4,001,27,m,r,0.27418980629928313,True,0.10218405432057473,True,"['high', 'low', 'high', 'low', 'high', 'low']",high,
,,162,4,001,27,m,r,test,,2,2,19,0.10218405432057473,,0,False,0.930079499958083,False,img_A,img_B,,0.4619832184948513,83.61896254756809,351.05153902128416,1232,[np.int64(398)],,,,,,low,0.10218405432057473,5,jumpsuit_07s,taco_05s,11,21,31,42,4,001,27,m,r,0.27418980629928313,True,0.10218405432057473,True,"['high', 'low', 'high', 'low', 'high', 'low']",high,
,,163,4,001,27,m,r,test,,2,2,20,0.10218405432057473,,0,False,1.942807899788022,False,img_B,img_A,,1.1736161487227903,212.42452291882506,413.2252284910048,1156,[np.int64(1159)],,,,,,low,0.10218405432057473,4,pita_02s,kimono_02s,11,21,31,42,4,001,27,m,r,0.27418980629928313,True,0.10218405432057473,True,"['high', 'low', 'high', 'low', 'high', 'low']",high,
,,164,4,001,27,m,r,test,,2,3,1,0.27418980629928313,,1,False,0.9325169001240283,False,img_B,img_B,,3.3114346716623912,599.3696755708928,359.0135977784237,470,[np.int64(554)],,,,,,high,0.27418980629928313,7,garlic_05s,turf_04s,13,23,33,41,4,001,27,m,r,0.27418980629928313,True,0.10218405432057473,True,"['high', 'low', 'high', 'low', 'high', 'low']",high,
,,165,4,001,27,m,r,test,,2,3,2,0.27418980629928313,,1,False,0.810063999844715,False,img_B,img_B,,3.413187943693832,617.7870178085836,230.01735785683982,269,[np.int64(567)],,,,,,high,0.27418980629928313,7,squeegee_10s,zebra_11s,13,23,33,41,4,001,27,m,r,0.27418980629928313,True,0.10218405432057473,True,"['high', 'low', 'high', 'low', 'high', 'low']",high,
,,166,4,001,27,m,r,test,,2,3,3,0.27418980629928313,,0,False,1.023382700048387,False,img_A,img_B,,3.4786547617716708,629.6365118806724,357.76779627310145,3,[np.int64(23)],,,,,,high,0.27418980629928313,6,coaster_05s,sequin_06s,13,23,33,42,4,001,27,m,r,0.27418980629928313,True,0.10218405432057473,True,"['high', 'low', 'high', 'low', 'high', 'low']",high,
,,167,4,001,27,m,r,test,,2,3,4,0.27418980629928313,,1,False,0.6616177000105381,False,img_B,img_B,,2.8591352083121633,517.5034727045015,262.5859530164413,1390,[np.int64(1382)],,,,,,high,0.27418980629928313,7,grapefruit_09s,pet_food_04s,13,23,33,41,4,001,27,m,r,0.27418980629928313,True,0.10218405432057473,True,"['high', 'low', 'high', 'low', 'high', 'low']",high,
,,168,4,001,27,m,r,test,,2,3,5,0.27418980629928313,,1,False,0.7772552000824362,False,img_A,img_A,,3.0612851184248937,554.0926064349057,221.64904033902263,709,[np.int64(1017)],,,,,,high,0.27418980629928313,7,donut_02s,nutcracker_03s,13,23,33,41,4,001,27,m,r,0.27418980629928313,True,0.10218405432057473,True,"['high', 'low', 'high', 'low', 'high', 'low']",high,
,,169,4,001,27,m,r,test,,2,3,6,0.27418980629928313,,1,False,0.8654281999915838,False,img_A,img_A,,4.768283186918758,863.0592568322952,216.9459601149325,190,[np.int64(324)],,,,,,high,0.27418980629928313,7,clipper2_05s,pill_06s,13,23,33,41,4,001,27,m,r,0.27418980629928313,True,0.10218405432057473,True,"['high', 'low', 'high', 'low', 'high', 'low']",high,
,,170,4,001,27,m,r,test,,2,3,7,0.27418980629928313,,1,False,1.1118449999485165,False,img_B,img_B,,3.1125469474975827,563.3709974970625,229.54888286882553,1237,[np.int64(42)],,,,,,high,0.27418980629928313,5,robot_01b,snorkel_09s,13,23,33,41,4,001,27,m,r,0.27418980629928313,True,0.10218405432057473,True,"['high', 'low', 'high', 'low', 'high', 'low']",high,
,,171,4,001,27,m,r,test,,2,3,8,0.27418980629928313,,1,False,1.0297670001164079,False,img_A,img_A,,3.8907294217549997,704.2220253376549,496.98584714227513,1178,[np.int64(1142)],,,,,,high,0.27418980629928313,5,cat_01b,bib_13n,13,23,33,41,4,001,27,m,r,0.27418980629928313,True,0.10218405432057473,True,"['high', 'low', 'high', 'low', 'high', 'low']",high,
,,172,4,001,27,m,r,test,,2,3,9,0.27418980629928313,,1,False,0.6785168999340385,False,img_B,img_B,,3.074362225375701,556.4595627930019,359.74853584588897,661,[np.int64(27)],,,,,,high,0.27418980629928313,7,jam_13s,saffron_14s,13,23,33,41,4,001,27,m,r,0.27418980629928313,True,0.10218405432057473,True,"['high', 'low', 'high', 'low', 'high', 'low']",high,
,,173,4,001,27,m,r,test,,2,3,10,0.27418980629928313,,1,False,0.8294170000590384,False,img_A,img_A,,2.0035296318336426,362.6388633618893,455.5331102434681,138,[np.int64(1546)],,,,,,high,0.27418980629928313,7,cream_cheese_07s,swab_14s,13,23,33,41,4,001,27,m,r,0.27418980629928313,True,0.10218405432057473,True,"['high', 'low', 'high', 'low', 'high', 'low']",high,
,,174,4,001,27,m,r,test,,2,3,11,0.27418980629928313,,1,False,0.7960532999131829,False,img_B,img_B,,4.170504055561982,754.8612340567187,378.4397576256071,614,[np.int64(1186)],,,,,,high,0.27418980629928313,7,caviar_01b,creme_brulee_10s,13,23,33,41,4,001,27,m,r,0.27418980629928313,True,0.10218405432057473,True,"['high', 'low', 'high', 'low', 'high', 'low']",high,
,,175,4,001,27,m,r,test,,2,3,12,0.27418980629928313,,1,False,0.5604094997979701,False,img_B,img_B,,2.1481122255187732,388.80831281889795,399.445181154899,1446,[np.int64(860)],,,,,,high,0.27418980629928313,6,cardinal_05s,blower_08s,13,23,33,41,4,001,27,m,r,0.27418980629928313,True,0.10218405432057473,True,"['high', 'low', 'high', 'low', 'high', 'low']",high,
,,176,4,001,27,m,r,test,,2,3,13,0.27418980629928313,,1,False,0.6134848999790847,False,img_B,img_B,,3.770625874899018,682.4832833567223,479.8679706951099,384,[np.int64(1172)],,,,,,high,0.27418980629928313,7,snack_12s,wrench_03s,13,23,33,41,4,001,27,m,r,0.27418980629928313,True,0.10218405432057473,True,"['high', 'low', 'high', 'low', 'high', 'low']",high,
,,177,4,001,27,m,r,test,,2,3,14,0.27418980629928313,,1,False,0.9598115000408143,False,img_B,img_B,,2.771295816694957,501.6045428217872,328.3249867622322,993,[np.int64(21)],,,,,,high,0.27418980629928313,7,asparagus_07s,pacifier_07s,13,23,33,41,4,001,27,m,r,0.27418980629928313,True,0.10218405432057473,True,"['high', 'low', 'high', 'low', 'high', 'low']",high,
,,178,4,001,27,m,r,test,,2,3,15,0.27418980629928313,,1,False,1.1788773997686803,False,img_A,img_A,,1.7754879221406241,321.36331390745295,214.47645428171543,680,[np.int64(638)],,,,,,high,0.27418980629928313,6,bedpan_13s,ham_10s,13,23,33,41,4,001,27,m,r,0.27418980629928313,True,0.10218405432057473,True,"['high', 'low', 'high', 'low', 'high', 'low']",high,
,,179,4,001,27,m,r,test,,2,3,16,0.27418980629928313,,1,False,0.8276571000460535,False,img_B,img_B,,1.7373912413423225,314.46781468296035,309.20093086824295,1042,[np.int64(7)],,,,,,high,0.27418980629928313,7,figurine_11s,ready_meal_11s,13,23,33,41,4,001,27,m,r,0.27418980629928313,True,0.10218405432057473,True,"['high', 'low', 'high', 'low', 'high', 'low']",high,
,,180,4,001,27,m,r,test,,2,3,17,0.27418980629928313,,1,False,1.8978020001668483,False,img_B,img_B,,4.050688621660656,733.1746405205788,355.5002695926422,1484,[np.int64(760)],,,,,,high,0.27418980629928313,4,toast_13s,pug_19s,13,23,33,41,4,001,27,m,r,0.27418980629928313,True,0.10218405432057473,True,"['high', 'low', 'high', 'low', 'high', 'low']",high,
,,181,4,001,27,m,r,test,,2,3,18,0.27418980629928313,,1,False,1.0414186001289636,False,img_A,img_A,,3.445695837127684,623.6709465201108,337.8972845670797,99,[np.int64(289)],,,,,,high,0.27418980629928313,7,toad_06s,waffle_iron_14s,13,23,33,41,4,001,27,m,r,0.27418980629928313,True,0.10218405432057473,True,"['high', 'low', 'high', 'low', 'high', 'low']",high,
,,182,4,001,27,m,r,test,,2,3,19,0.27418980629928313,,1,False,1.4149062000215054,False,img_A,img_A,,2.126680791313493,384.92922322774217,351.32553037726746,587,[np.int64(159)],,,,,,high,0.27418980629928313,6,beanbag_16s,ketchup_15s,13,23,33,41,4,001,27,m,r,0.27418980629928313,True,0.10218405432057473,True,"['high', 'low', 'high', 'low', 'high', 'low']",high,
,,183,4,001,27,m,r,test,,2,3,20,0.27418980629928313,,1,False,0.5949828000739217,False,img_B,img_B,,1.9664980523883466,355.9361474822907,609.5127092556127,1266,[np.int64(949)],,,,,,high,0.27418980629928313,7,cloak_12s,gyro_07s,13,23,33,41,4,001,27,m,r,0.27418980629928313,True,0.10218405432057473,True,"['high', 'low', 'high', 'low', 'high', 'low']",high,
,,184,4,001,27,m,r,test,,2,4,1,0.10218405432057473,,0,False,1.9503514000680298,False,img_B,img_A,,1.50317909885566,272.07541689287444,277.2083932452134,239,[np.int64(1002)],,,,,,low,0.10218405432057473,4,bowtie_14s,sewage_09s,11,21,31,42,4,001,27,m,r,0.27418980629928313,True,0.10218405432057473,True,"['high', 'low', 'high', 'low', 'high', 'low']",high,
,,185,4,001,27,m,r,test,,2,4,2,0.10218405432057473,,0,False,1.2614728000480682,False,img_A,img_B,,1.649761566042364,298.60684345366786,522.8078361662542,1015,[np.int64(344)],,,,,,low,0.10218405432057473,4,flipper_12s,dragonfly_09s,11,21,31,42,4,001,27,m,r,0.27418980629928313,True,0.10218405432057473,True,"['high', 'low', 'high', 'low', 'high', 'low']",high,
,,186,4,001,27,m,r,test,,2,4,3,0.10218405432057473,,1,False,2.56060430011712,False,img_B,img_B,,1.128274772248903,204.21773377705145,269.49465370267313,647,[np.int64(1146)],,,,,,low,0.10218405432057473,2,cauliflower_02s,boxing_gloves_08s,11,21,31,41,4,001,27,m,r,0.27418980629928313,True,0.10218405432057473,True,"['high', 'low', 'high', 'low', 'high', 'low']",high,
,,187,4,001,27,m,r,test,,2,4,4,0.10218405432057473,,0,False,3.2628623999189585,False,img_B,img_A,,1.3921820299167496,251.98494741493167,350.511260756364,513,[np.int64(1200)],,,,,,low,0.10218405432057473,3,lab_coat_04s,rattle_12s,11,21,31,42,4,001,27,m,r,0.27418980629928313,True,0.10218405432057473,True,"['high', 'low', 'high', 'low', 'high', 'low']",high,
,,188,4,001,27,m,r,test,,2,4,5,0.10218405432057473,,0,False,1.1628487000707537,False,img_A,img_B,,0.21985922041908018,39.794518895853514,349.6228971399813,1089,[np.int64(1592)],,,,,,low,0.10218405432057473,4,sorbet_05s,hydrant_01s,11,21,31,42,4,001,27,m,r,0.27418980629928313,True,0.10218405432057473,True,"['high', 'low', 'high', 'low', 'high', 'low']",high,
,,189,4,001,27,m,r,test,,2,4,6,0.10218405432057473,,0,False,0.9319128000643104,False,img_A,img_B,,0.6117204208609778,110.72139617583699,419.62824123085977,891,[np.int64(1051)],,,,,,low,0.10218405432057473,4,egg_roll_07n,punching_bag_12s,11,21,31,42,4,001,27,m,r,0.27418980629928313,True,0.10218405432057473,True,"['high', 'low', 'high', 'low', 'high', 'low']",high,
,,190,4,001,27,m,r,test,,2,4,7,0.10218405432057473,,1,False,1.1983513999730349,False,img_B,img_B,,0.5190640620362998,93.95059522857028,574.3076294125523,180,[np.int64(404)],,,,,,low,0.10218405432057473,5,swordfish_08s,shaving_cream_05s,11,21,31,41,4,001,27,m,r,0.27418980629928313,True,0.10218405432057473,True,"['high', 'low', 'high', 'low', 'high', 'low']",high,
,,191,4,001,27,m,r,test,,2,4,8,0.10218405432057473,,1,False,0.8282064001541585,False,img_A,img_A,,0.48124785238640694,87.10586128193965,347.5724913909007,1357,[np.int64(1345)],,,,,,low,0.10218405432057473,5,sleeping_bag_12s,celery_04s,11,21,31,41,4,001,27,m,r,0.27418980629928313,True,0.10218405432057473,True,"['high', 'low', 'high', 'low', 'high', 'low']",high,
,,192,4,001,27,m,r,test,,2,4,9,0.10218405432057473,,0,False,3.19567420007661,False,img_A,img_B,,1.5978758463655793,289.21552819216987,258.4691661851092,1073,[np.int64(1297)],,,,,,low,0.10218405432057473,3,dough_19s,step_stool_11s,11,21,31,42,4,001,27,m,r,0.27418980629928313,True,0.10218405432057473,True,"['high', 'low', 'high', 'low', 'high', 'low']",high,
,,193,4,001,27,m,r,test,,2,4,10,0.10218405432057473,,1,False,3.9639774998649955,False,img_B,img_B,,2.0946767457122872,379.13649097392397,406.8466084823175,1530,[np.int64(1069)],,,,,,low,0.10218405432057473,1,duster_07s,hamburger_02s,11,21,31,41,4,001,27,m,r,0.27418980629928313,True,0.10218405432057473,True,"['high', 'low', 'high', 'low', 'high', 'low']",high,
,,194,4,001,27,m,r,test,,2,4,11,0.10218405432057473,,1,False,1.5646891999058425,False,img_B,img_B,,1.0485715475591932,189.79145010821398,626.3217803176092,105,[np.int64(115)],,,,,,low,0.10218405432057473,2,ice_cream_08s,badge_07s,11,21,31,41,4,001,27,m,r,0.27418980629928313,True,0.10218405432057473,True,"['high', 'low', 'high', 'low', 'high', 'low']",high,
,,195,4,001,27,m,r,test,,2,4,12,0.10218405432057473,,0,False,1.7634294000454247,False,img_B,img_A,,1.4785010240394572,267.60868535114173,180.69115061211488,724,[np.int64(127)],,,,,,low,0.10218405432057473,3,spaghetti_07s,dreidel_10s,11,21,31,42,4,001,27,m,r,0.27418980629928313,True,0.10218405432057473,True,"['high', 'low', 'high', 'low', 'high', 'low']",high,
,,196,4,001,27,m,r,test,,2,4,13,0.10218405432057473,,0,False,0.9522150000557303,False,img_A,img_B,,0.9613672102160912,174.0074650491125,476.4133332218264,1300,[np.int64(964)],,,,,,low,0.10218405432057473,3,trap_03s,filing_cabinet_07s,11,21,31,42,4,001,27,m,r,0.27418980629928313,True,0.10218405432057473,True,"['high', 'low', 'high', 'low', 'high', 'low']",high,
,,197,4,001,27,m,r,test,,2,4,14,0.10218405432057473,,0,False,1.1793506999965757,False,img_B,img_A,,1.2339490395051127,223.3447761504254,314.7491814100283,1018,[np.int64(143)],,,,,,low,0.10218405432057473,2,doorknocker_26s,avocado_13s,11,21,31,42,4,001,27,m,r,0.27418980629928313,True,0.10218405432057473,True,"['high', 'low', 'high', 'low', 'high', 'low']",high,
,,198,4,001,27,m,r,test,,2,4,15,0.10218405432057473,,0,False,3.2797542999032885,False,img_A,img_B,,1.2996835504237396,235.2427226266969,612.626545382999,1183,[np.int64(1096)],,,,,,low,0.10218405432057473,2,puppy_06s,hairbrush_12s,11,21,31,42,4,001,27,m,r,0.27418980629928313,True,0.10218405432057473,True,"['high', 'low', 'high', 'low', 'high', 'low']",high,
,,199,4,001,27,m,r,test,,2,4,16,0.10218405432057473,,0,False,0.9471829999238253,False,img_B,img_A,,0.539009125355982,97.56065168943275,494.7786816259716,646,[np.int64(687)],,,,,,low,0.10218405432057473,3,suit_06s,tack_01b,11,21,31,42,4,001,27,m,r,0.27418980629928313,True,0.10218405432057473,True,"['high', 'low', 'high', 'low', 'high', 'low']",high,
,,200,4,001,27,m,r,test,,2,4,17,0.10218405432057473,,0,False,1.6805131998844445,False,img_A,img_B,,1.1010714372819084,199.2939301480254,437.1593257475846,1548,[np.int64(1090)],,,,,,low,0.10218405432057473,3,wooden_leg_02s,taffy_02s,11,21,31,42,4,001,27,m,r,0.27418980629928313,True,0.10218405432057473,True,"['high', 'low', 'high', 'low', 'high', 'low']",high,
,,201,4,001,27,m,r,test,,2,4,18,0.10218405432057473,,0,False,0.8479851000010967,False,img_A,img_B,,0.8568707676874946,155.09360895143652,539.464408554977,863,[np.int64(1153)],,,,,,low,0.10218405432057473,5,sink_01b,football_helmet_05s,11,21,31,42,4,001,27,m,r,0.27418980629928313,True,0.10218405432057473,True,"['high', 'low', 'high', 'low', 'high', 'low']",high,
,,202,4,001,27,m,r,test,,2,4,19,0.10218405432057473,,0,False,2.1125649998430163,False,img_B,img_A,,0.49271600204876903,89.1815963708272,403.01257558954137,758,[np.int64(393)],,,,,,low,0.10218405432057473,6,cookie_11s,soap_06s,11,21,31,42,4,001,27,m,r,0.27418980629928313,True,0.10218405432057473,True,"['high', 'low', 'high', 'low', 'high', 'low']",high,
,,203,4,001,27,m,r,test,,2,4,20,0.10218405432057473,,0,False,1.4795380998402834,False,img_A,img_B,,1.1224300994481888,203.1598480001222,485.34497073325826,1519,[np.int64(1380)],,,,,,low,0.10218405432057473,3,target_14s,batter_04s,11,21,31,42,4,001,27,m,r,0.27418980629928313,True,0.10218405432057473,True,"['high', 'low', 'high', 'low', 'high', 'low']",high,
,,204,4,001,27,m,r,test,,2,5,1,0.27418980629928313,,1,False,2.0953516999725252,False,img_A,img_A,,3.2433046294879313,587.0381379373156,270.78361417230155,5,[np.int64(1555)],,,,,,high,0.27418980629928313,6,costume_04s,bikini_09s,13,23,33,41,4,001,27,m,r,0.27418980629928313,True,0.10218405432057473,True,"['high', 'low', 'high', 'low', 'high', 'low']",high,
,,205,4,001,27,m,r,test,,2,5,2,0.27418980629928313,,1,False,1.0777016999199986,False,img_B,img_B,,3.7005019700369712,669.7908565766918,264.4688233001353,323,[np.int64(355)],,,,,,high,0.27418980629928313,6,olive_04s,raccoon_06n,13,23,33,41,4,001,27,m,r,0.27418980629928313,True,0.10218405432057473,True,"['high', 'low', 'high', 'low', 'high', 'low']",high,
,,206,4,001,27,m,r,test,,2,5,3,0.27418980629928313,,1,False,0.6806643998716027,False,img_A,img_A,,3.8307584203148233,693.367274076983,256.53602122445415,1014,[np.int64(1314)],,,,,,high,0.27418980629928313,7,sloth_03s,container_04s,13,23,33,41,4,001,27,m,r,0.27418980629928313,True,0.10218405432057473,True,"['high', 'low', 'high', 'low', 'high', 'low']",high,
,,207,4,001,27,m,r,test,,2,5,4,0.27418980629928313,,1,False,0.7485468001104891,False,img_A,img_A,,1.8556571020203063,335.87393546567546,224.79813765807523,202,[np.int64(753)],,,,,,high,0.27418980629928313,7,apron_13s,pajamas_13s,13,23,33,41,4,001,27,m,r,0.27418980629928313,True,0.10218405432057473,True,"['high', 'low', 'high', 'low', 'high', 'low']",high,
,,208,4,001,27,m,r,test,,2,5,5,0.27418980629928313,,1,False,0.7605558999348432,False,img_A,img_A,,2.796371876493119,506.1433096452546,89.21784579696012,1000,[np.int64(252)],,,,,,high,0.27418980629928313,7,bubble_wrap_11s,pencil_sharpener_11s,13,23,33,41,4,001,27,m,r,0.27418980629928313,True,0.10218405432057473,True,"['high', 'low', 'high', 'low', 'high', 'low']",high,
,,209,4,001,27,m,r,test,,2,5,6,0.27418980629928313,,1,False,0.728722200030461,False,img_A,img_A,,3.198282496180809,578.8891318087265,293.4783099825276,1449,[np.int64(286)],,,,,,high,0.27418980629928313,7,frisbee_04s,pants_03s,13,23,33,41,4,001,27,m,r,0.27418980629928313,True,0.10218405432057473,True,"['high', 'low', 'high', 'low', 'high', 'low']",high,
,,210,4,001,27,m,r,test,,2,5,7,0.27418980629928313,,0,False,1.2285762999672443,False,img_B,img_A,,3.0071090221593866,544.2867330108489,56.174189617981874,303,[np.int64(956)],,,,,,high,0.27418980629928313,5,mouthpiece_01s,mashed_potato_05s,13,23,33,42,4,001,27,m,r,0.27418980629928313,True,0.10218405432057473,True,"['high', 'low', 'high', 'low', 'high', 'low']",high,
,,211,4,001,27,m,r,test,,2,5,8,0.27418980629928313,,1,False,0.6127669999841601,False,img_A,img_A,,2.8190858645845815,510.2545414898093,526.0083688758822,852,[np.int64(1160)],,,,,,high,0.27418980629928313,5,butter_14s,sponge_14s,13,23,33,41,4,001,27,m,r,0.27418980629928313,True,0.10218405432057473,True,"['high', 'low', 'high', 'low', 'high', 'low']",high,
,,212,4,001,27,m,r,test,,2,5,9,0.27418980629928313,,1,False,0.6786367001477629,False,img_A,img_A,,2.6866016386473213,486.27489659516516,418.6596730623303,236,[np.int64(28)],,,,,,high,0.27418980629928313,7,lion_22s,pumpkin_16s,13,23,33,41,4,001,27,m,r,0.27418980629928313,True,0.10218405432057473,True,"['high', 'low', 'high', 'low', 'high', 'low']",high,
,,213,4,001,27,m,r,test,,2,5,10,0.27418980629928313,,1,False,0.7434145000297576,False,img_A,img_A,,2.4438567961330624,442.33808010008426,343.7168494780603,76,[np.int64(1218)],,,,,,high,0.27418980629928313,7,float_08s,praying_mantis_20s,13,23,33,41,4,001,27,m,r,0.27418980629928313,True,0.10218405432057473,True,"['high', 'low', 'high', 'low', 'high', 'low']",high,
,,214,4,001,27,m,r,test,,2,5,11,0.27418980629928313,,1,False,0.7108352000359446,False,img_B,img_B,,2.289767279765622,414.44787763757756,311.4571122980345,889,[np.int64(40)],,,,,,high,0.27418980629928313,7,domino_02s,fingerprint_12s,13,23,33,41,4,001,27,m,r,0.27418980629928313,True,0.10218405432057473,True,"['high', 'low', 'high', 'low', 'high', 'low']",high,
,,215,4,001,27,m,r,test,,2,5,12,0.27418980629928313,,1,False,2.141916499938816,False,img_B,img_B,,1.6980791376398612,307.3523239128149,392.6252483161514,48,[np.int64(1406)],,,,,,high,0.27418980629928313,4,hot_tub_07s,hot_chocolate_07s,13,23,33,41,4,001,27,m,r,0.27418980629928313,True,0.10218405432057473,True,"['high', 'low', 'high', 'low', 'high', 'low']",high,
,,216,4,001,27,m,r,test,,2,5,13,0.27418980629928313,,1,False,0.9460909999907017,False,img_B,img_B,,3.567785133691006,645.7691091980721,264.16237970271425,1134,[np.int64(651)],,,,,,high,0.27418980629928313,6,pickle_13s,sushi_08s,13,23,33,41,4,001,27,m,r,0.27418980629928313,True,0.10218405432057473,True,"['high', 'low', 'high', 'low', 'high', 'low']",high,
,,217,4,001,27,m,r,test,,2,5,14,0.27418980629928313,,1,False,0.7809839998371899,False,img_A,img_A,,3.208687744952469,580.7724818363969,211.1954642505248,959,[np.int64(759)],,,,,,high,0.27418980629928313,7,test_tube_12s,dumpster_02s,13,23,33,41,4,001,27,m,r,0.27418980629928313,True,0.10218405432057473,True,"['high', 'low', 'high', 'low', 'high', 'low']",high,
,,218,4,001,27,m,r,test,,2,5,15,0.27418980629928313,,1,False,0.6745788999833167,False,img_B,img_B,,2.1369029292336656,386.77943019129344,355.67808521091337,197,[np.int64(653)],,,,,,high,0.27418980629928313,7,pizza_03s,air_mattress_03s,13,23,33,41,4,001,27,m,r,0.27418980629928313,True,0.10218405432057473,True,"['high', 'low', 'high', 'low', 'high', 'low']",high,
,,219,4,001,27,m,r,test,,2,5,16,0.27418980629928313,,1,False,0.8134600000921637,False,img_B,img_B,,2.1636130932612203,391.6139698802809,296.6599853513183,787,[np.int64(1407)],,,,,,high,0.27418980629928313,7,bean_04s,spider_web_14s,13,23,33,41,4,001,27,m,r,0.27418980629928313,True,0.10218405432057473,True,"['high', 'low', 'high', 'low', 'high', 'low']",high,
,,220,4,001,27,m,r,test,,2,5,17,0.27418980629928313,,1,False,0.8617285001091659,False,img_B,img_B,,2.4674285756919896,446.6045722002501,401.4231558252248,785,[np.int64(670)],,,,,,high,0.27418980629928313,7,staple_01b,locker_08s,13,23,33,41,4,001,27,m,r,0.27418980629928313,True,0.10218405432057473,True,"['high', 'low', 'high', 'low', 'high', 'low']",high,
,,221,4,001,27,m,r,test,,2,5,18,0.27418980629928313,,1,False,2.2436170000582933,False,img_A,img_A,,3.124206896181005,565.4814482087619,637.9932384710015,1402,[np.int64(741)],,,,,,high,0.27418980629928313,4,macaroni_11s,diamond_14s,13,23,33,41,4,001,27,m,r,0.27418980629928313,True,0.10218405432057473,True,"['high', 'low', 'high', 'low', 'high', 'low']",high,
,,222,4,001,27,m,r,test,,2,5,19,0.27418980629928313,,1,False,0.7281831000000238,False,img_B,img_B,,3.760744910502472,680.6948288009474,337.631662972326,1309,[np.int64(1470)],,,,,,high,0.27418980629928313,6,pea_14s,footprint_11s,13,23,33,41,4,001,27,m,r,0.27418980629928313,True,0.10218405432057473,True,"['high', 'low', 'high', 'low', 'high', 'low']",high,
,,223,4,001,27,m,r,test,,2,5,20,0.27418980629928313,,1,False,0.7271257999818772,False,img_B,img_B,,2.9850930817021952,540.3018477880973,262.83094306927654,1001,[np.int64(457)],,,,,,high,0.27418980629928313,7,vest_09s,pallet_10s,13,23,33,41,4,001,27,m,r,0.27418980629928313,True,0.10218405432057473,True,"['high', 'low', 'high', 'low', 'high', 'low']",high,
,,224,4,001,27,m,r,test,,2,6,1,0.10218405432057473,,0,False,1.9781559000257403,False,img_A,img_B,,2.4061107909857355,435.50605316841813,355.7648036343231,411,[np.int64(450)],,,,,,low,0.10218405432057473,5,parfait_20s,wallet_05s,11,21,31,42,4,001,27,m,r,0.27418980629928313,True,0.10218405432057473,True,"['high', 'low', 'high', 'low', 'high', 'low']",high,
,,225,4,001,27,m,r,test,,2,6,2,0.10218405432057473,,1,False,3.6446811999194324,False,img_B,img_B,,1.2300537079101634,222.63972113173958,346.23984009498093,675,[np.int64(791)],,,,,,low,0.10218405432057473,5,mitten_04s,keyboard_07s,11,21,31,41,4,001,27,m,r,0.27418980629928313,True,0.10218405432057473,True,"['high', 'low', 'high', 'low', 'high', 'low']",high,
,,226,4,001,27,m,r,test,,2,6,3,0.10218405432057473,,0,False,1.1113404999487102,False,img_B,img_A,,1.5205481388714066,275.2192131357246,590.8522016340119,1193,[np.int64(294)],,,,,,low,0.10218405432057473,5,eggshell_12s,canoe_06s,11,21,31,42,4,001,27,m,r,0.27418980629928313,True,0.10218405432057473,True,"['high', 'low', 'high', 'low', 'high', 'low']",high,
,,227,4,001,27,m,r,test,,2,6,4,0.10218405432057473,,1,False,0.9137631999328732,False,img_A,img_A,,1.575540800663579,285.1728849201078,666.5802736637397,293,[np.int64(1056)],,,,,,low,0.10218405432057473,5,goat_02n,cheesecake_11s,11,21,31,41,4,001,27,m,r,0.27418980629928313,True,0.10218405432057473,True,"['high', 'low', 'high', 'low', 'high', 'low']",high,
,,228,4,001,27,m,r,test,,2,6,5,0.10218405432057473,,1,False,1.4465924000833184,False,img_B,img_B,,1.3548790240255328,245.23310334862143,284.27958171760895,1240,[np.int64(385)],,,,,,low,0.10218405432057473,4,tattoo_12s,spacesuit_06s,11,21,31,41,4,001,27,m,r,0.27418980629928313,True,0.10218405432057473,True,"['high', 'low', 'high', 'low', 'high', 'low']",high,
,,229,4,001,27,m,r,test,,2,6,6,0.10218405432057473,,0,False,3.7476074998266995,False,img_A,img_B,,1.9005910910236876,344.0069874752875,126.96936281174345,1243,[np.int64(537)],,,,,,low,0.10218405432057473,2,sauerkraut_03s,cornhusk_12s,11,21,31,42,4,001,27,m,r,0.27418980629928313,True,0.10218405432057473,True,"['high', 'low', 'high', 'low', 'high', 'low']",high,
,,230,4,001,27,m,r,test,,2,6,7,0.10218405432057473,,0,False,0.9441887000575662,False,img_A,img_B,,1.2215048002178277,221.0923688394268,229.8117634058336,194,[np.int64(557)],,,,,,low,0.10218405432057473,3,cashew_02s,vacuum_11s,11,21,31,42,4,001,27,m,r,0.27418980629928313,True,0.10218405432057473,True,"['high', 'low', 'high', 'low', 'high', 'low']",high,
,,231,4,001,27,m,r,test,,2,6,8,0.10218405432057473,,0,False,1.0140368998982012,False,img_B,img_A,,0.9653121026916891,174.72149058719572,161.75310837088392,1264,[np.int64(1164)],,,,,,low,0.10218405432057473,3,lollipop_06n,paintbrush_12s,11,21,31,42,4,001,27,m,r,0.27418980629928313,True,0.10218405432057473,True,"['high', 'low', 'high', 'low', 'high', 'low']",high,
,,232,4,001,27,m,r,test,,2,6,9,0.10218405432057473,,1,False,2.962693399982527,False,img_B,img_B,,1.105211804676303,200.04333664641086,317.91640847328114,26,[np.int64(128)],,,,,,low,0.10218405432057473,2,tube_top_10s,ginger_03s,11,21,31,41,4,001,27,m,r,0.27418980629928313,True,0.10218405432057473,True,"['high', 'low', 'high', 'low', 'high', 'low']",high,
,,233,4,001,27,m,r,test,,2,6,10,0.10218405432057473,,1,False,0.7304118000902236,False,img_A,img_A,,1.1982836962493824,216.8893490211382,216.72492794975844,804,[np.int64(1549)],,,,,,low,0.10218405432057473,5,barrette_01b,chinchilla_13n,11,21,31,41,4,001,27,m,r,0.27418980629928313,True,0.10218405432057473,True,"['high', 'low', 'high', 'low', 'high', 'low']",high,
,,234,4,001,27,m,r,test,,2,6,11,0.10218405432057473,,1,False,4.842525999993086,False,img_B,img_B,,1.425672468135064,258.0467167324466,391.73738506273577,536,[np.int64(1226)],,,,,,low,0.10218405432057473,4,checkers_07s,hairdryer_06s,11,21,31,41,4,001,27,m,r,0.27418980629928313,True,0.10218405432057473,True,"['high', 'low', 'high', 'low', 'high', 'low']",high,
,,235,4,001,27,m,r,test,,2,6,12,0.10218405432057473,,1,False,1.0469143001828343,False,img_B,img_B,,-0.4155308978558691,-75.21109251191231,589.9356830436666,1387,[np.int64(1415)],,,,,,low,0.10218405432057473,4,boa_02s,boot_08s,11,21,31,41,4,001,27,m,r,0.27418980629928313,True,0.10218405432057473,True,"['high', 'low', 'high', 'low', 'high', 'low']",high,
,,236,4,001,27,m,r,test,,2,6,13,0.10218405432057473,,1,False,0.7965392000041902,False,img_A,img_A,,0.78713535468355,142.47149919772255,577.3742730018777,880,[np.int64(526)],,,,,,low,0.10218405432057473,3,urinal_10s,giraffe_07s,11,21,31,41,4,001,27,m,r,0.27418980629928313,True,0.10218405432057473,True,"['high', 'low', 'high', 'low', 'high', 'low']",high,
,,237,4,001,27,m,r,test,,2,6,14,0.10218405432057473,,0,False,0.880192399956286,False,img_B,img_A,,1.3900448562912227,251.5981189887113,456.4370849623218,607,[np.int64(372)],,,,,,low,0.10218405432057473,4,nightshirt_01b,calf1_12s,11,21,31,42,4,001,27,m,r,0.27418980629928313,True,0.10218405432057473,True,"['high', 'low', 'high', 'low', 'high', 'low']",high,
,,238,4,001,27,m,r,test,,2,6,15,0.10218405432057473,,0,False,2.297089599771425,False,img_B,img_A,,0.9269736480660027,167.7822302999465,257.5802921153594,277,[np.int64(399)],,,,,,low,0.10218405432057473,5,skewer_01b,grater_03s,11,21,31,42,4,001,27,m,r,0.27418980629928313,True,0.10218405432057473,True,"['high', 'low', 'high', 'low', 'high', 'low']",high,
,,239,4,001,27,m,r,test,,2,6,16,0.10218405432057473,,1,False,2.0789381000213325,False,img_A,img_A,,2.3441678022562082,424.29437220837366,490.89182437780937,535,[np.int64(1093)],,,,,,low,0.10218405432057473,4,crutch_01b,lanyard_13s,11,21,31,41,4,001,27,m,r,0.27418980629928313,True,0.10218405432057473,True,"['high', 'low', 'high', 'low', 'high', 'low']",high,
,,240,4,001,27,m,r,test,,2,6,17,0.10218405432057473,,1,False,1.4941912000067532,False,img_A,img_A,,-0.15045467123643694,-27.232295493795085,561.6391685883026,639,[np.int64(781)],,,,,,low,0.10218405432057473,3,wetsuit_03s,mushroom_08n,11,21,31,41,4,001,27,m,r,0.27418980629928313,True,0.10218405432057473,True,"['high', 'low', 'high', 'low', 'high', 'low']",high,
,,241,4,001,27,m,r,test,,2,6,18,0.10218405432057473,,1,False,1.3450660000089556,False,img_B,img_B,,1.2367061312089582,223.84380974882146,381.845522961486,1028,[np.int64(332)],,,,,,low,0.10218405432057473,6,tomato_sauce_07s,toilet_14n,11,21,31,41,4,001,27,m,r,0.27418980629928313,True,0.10218405432057473,True,"['high', 'low', 'high', 'low', 'high', 'low']",high,
,,242,4,001,27,m,r,test,,2,6,19,0.10218405432057473,,0,False,0.8797176999505609,False,img_B,img_A,,0.9135742454862539,165.35693843301195,180.26218926904062,363,[np.int64(1277)],,,,,,low,0.10218405432057473,5,worm_06s,cookie_cutter_02s,11,21,31,42,4,001,27,m,r,0.27418980629928313,True,0.10218405432057473,True,"['high', 'low', 'high', 'low', 'high', 'low']",high,
,,243,4,001,27,m,r,test,,2,6,20,0.10218405432057473,,1,False,0.9298409000039101,False,img_A,img_A,,0.6855362828906634,124.08206720321007,343.8374755646032,1138,[np.int64(1139)],,,,,,low,0.10218405432057473,5,handbrake_07s,peg_09s,11,21,31,41,4,001,27,m,r,0.27418980629928313,True,0.10218405432057473,True,"['high', 'low', 'high', 'low', 'high', 'low']",high,
